File: Dados - FTIR/amostra_rGO.txt
x               y
399.452  	86.1466
402.326  	85.1338
405.2  	85.9913
408.074  	85.1727
410.947  	85.5565
413.821  	87.5304
416.695  	86.3842
419.569  	87.7352
422.442  	85.7924
425.316  	84.7269
428.19  	86.2393
431.064  	85.5676
433.937  	85.5084
436.811  	84.6988
439.685  	84.5731
442.559  	84.9515
445.432  	84.3233
448.306  	84.283
451.18  	84.6903
454.054  	84.3049
456.927  	83.2321
459.801  	83.6338
462.675  	82.8874
465.549  	83.0419
468.422  	82.1496
471.296  	81.8089
474.17  	82.6446
477.044  	82.811
479.917  	82.5403
482.791  	82.9194
485.665  	83.4903
488.539  	84.0244
491.412  	83.7775
494.286  	83.5072
497.16  	84.1181
500.034  	83.7063
502.908  	83.6891
505.781  	83.5234
508.655  	83.243
511.529  	83.2496
514.403  	82.8262
517.276  	82.2839
520.15  	82.3407
523.024  	82.9987
525.898  	82.269
528.771  	82.957
531.645  	82.9795
534.519  	82.9881
537.393  	83.0496
540.266  	83.1213
543.14  	83.2497
546.014  	82.6685
548.888  	82.3874
551.761  	82.037
554.635  	81.7367
557.509  	81.7299
560.383  	81.9581
563.256  	82.3902
566.13  	82.3312
569.004  	81.5608
571.878  	81.2016
574.751  	81.1777
577.625  	81.5125
580.499  	81.7234
583.373  	81.9159
586.246  	81.9509
589.12  	82.0524
591.994  	81.9164
594.868  	82.2904
597.742  	82.7224
600.615  	82.8608
603.489  	83.1453
606.363  	83.6886
609.237  	84.0932
612.11  	84.546
614.984  	84.8814
617.858  	85.0614
620.732  	85.2629
623.605  	85.4657
626.479  	85.5878
629.353  	85.6303
632.227  	85.6782
635.1  	85.3986
637.974  	84.892
640.848  	84.7597
643.722  	84.4281
646.595  	83.6794
649.469  	82.9573
652.343  	82.1133
655.217  	81.7744
658.09  	82.9106
660.964  	84.1828
663.838  	85.1724
666.712  	86.2075
669.585  	86.9028
672.459  	87.8204
675.333  	88.5326
678.207  	88.8944
681.08  	89.2086
683.954  	89.3374
686.828  	89.4131
689.702  	88.9703
692.576  	88.8798
695.449  	88.7646
698.323  	88.5244
701.197  	88.289
704.071  	88.2313
706.944  	88.3931
709.818  	88.4048
712.692  	88.4417
715.566  	88.7361
718.439  	88.9751
721.313  	89.0395
724.187  	89.0686
727.061  	88.8245
729.934  	88.9837
732.808  	88.9882
735.682  	88.9467
738.556  	89.0554
741.429  	89.3876
744.303  	88.9637
747.177  	88.6036
750.051  	88.5789
752.924  	88.7361
755.798  	89.265
758.672  	89.6297
761.546  	89.8391
764.419  	89.4924
767.293  	88.5118
770.167  	86.9674
773.041  	86.0275
775.914  	86.3145
778.788  	87.4013
781.662  	88.7452
784.536  	89.7866
787.409  	90.4328
790.283  	90.8565
793.157  	91.23
796.031  	91.2723
798.905  	91.0038
801.778  	90.3476
804.652  	88.8947
807.526  	86.7935
810.4  	83.8232
813.273  	81.0424
816.147  	80.9596
819.021  	83.4393
821.895  	85.5449
824.768  	85.5812
827.642  	83.6147
830.516  	82.6137
833.39  	83.6908
836.263  	85.6729
839.137  	87.3976
842.011  	88.6998
844.885  	89.6425
847.758  	90.0693
850.632  	90.0245
853.506  	89.9481
856.38  	89.9968
859.253  	90.0529
862.127  	90.031
865.001  	89.8899
867.875  	89.8776
870.748  	89.7991
873.622  	89.4907
876.496  	89.0486
879.37  	88.7926
882.243  	88.79
885.117  	88.9833
887.991  	89.0937
890.865  	89.0702
893.739  	88.9995
896.612  	88.836
899.486  	88.4084
902.36  	87.6195
905.234  	87.1779
908.107  	87.0755
910.981  	86.952
913.855  	86.6753
916.729  	86.045
919.602  	84.9378
922.476  	83.4072
925.35  	82.0781
928.224  	80.7667
931.097  	79.446
933.971  	78.2125
936.845  	77.0981
939.719  	76.5946
942.592  	76.6909
945.466  	77.1474
948.34  	77.639
951.214  	78.0761
954.087  	78.5906
956.961  	79.2348
959.835  	79.8623
962.709  	80.5536
965.582  	81.122
968.456  	81.4137
971.33  	81.4259
974.204  	81.5246
977.077  	81.8261
979.951  	81.8063
982.825  	81.4653
985.699  	81.0301
988.573  	80.8465
991.446  	80.757
994.32  	80.5119
997.194  	79.8074
1000.07  	78.5201
1002.94  	76.7887
1005.82  	74.7104
1008.69  	71.3893
1011.56  	68.6019
1014.44  	67.9634
1017.31  	68.2537
1020.18  	69.0761
1023.06  	69.953
1025.93  	71.0698
1028.81  	72.3825
1031.68  	73.3474
1034.55  	72.6668
1037.43  	71.0935
1040.3  	70.377
1043.17  	70.636
1046.05  	71.3522
1048.92  	72.0201
1051.8  	72.4486
1054.67  	72.4962
1057.54  	72.5325
1060.42  	72.8665
1063.29  	73.4857
1066.16  	73.8882
1069.04  	74.0182
1071.91  	74.0342
1074.79  	74.1376
1077.66  	75.1959
1080.53  	77.0378
1083.41  	78.6811
1086.28  	80.0171
1089.15  	81.1406
1092.03  	82.0687
1094.9  	82.3275
1097.78  	81.6568
1100.65  	80.386
1103.52  	78.8608
1106.4  	77.0772
1109.27  	75.3465
1112.14  	73.4256
1115.02  	71.0778
1117.89  	69.1726
1120.77  	67.8393
1123.64  	65.8765
1126.51  	63.7752
1129.39  	61.3828
1132.26  	58.7308
1135.13  	56.2394
1138.01  	54.2593
1140.88  	52.7934
1143.76  	51.7626
1146.63  	50.755
1149.5  	49.2873
1152.38  	47.3306
1155.25  	45.4631
1158.12  	44.1175
1161  	43.4002
1163.87  	43.2586
1166.75  	43.9533
1169.62  	45.5844
1172.49  	47.7233
1175.37  	50.0826
1178.24  	52.5708
1181.11  	55.1112
1183.99  	57.7132
1186.86  	60.4008
1189.74  	62.9957
1192.61  	65.2121
1195.48  	66.9548
1198.36  	68.3652
1201.23  	69.8594
1204.1  	71.4007
1206.98  	72.5547
1209.85  	72.7721
1212.73  	71.7784
1215.6  	69.8969
1218.47  	67.639
1221.35  	65.6321
1224.22  	64.0074
1227.09  	62.3445
1229.97  	60.6527
1232.84  	59.3919
1235.72  	58.9699
1238.59  	59.1147
1241.46  	59.5327
1244.34  	60.0785
1247.21  	60.8743
1250.08  	62.1401
1252.96  	64.0442
1255.83  	66.6283
1258.71  	69.467
1261.58  	72.1331
1264.45  	74.1653
1267.33  	75.4544
1270.2  	76.1963
1273.07  	76.7187
1275.95  	77.1244
1278.82  	77.2544
1281.7  	77.0216
1284.57  	76.3806
1287.44  	74.969
1290.32  	72.4209
1293.19  	69.1747
1296.06  	67.5321
1298.94  	68.7444
1301.81  	71.1694
1304.69  	73.0738
1307.56  	74.5638
1310.43  	76.4233
1313.31  	76.55
1316.18  	76.1024
1319.05  	75.4516
1321.93  	76.3012
1324.8  	78.6725
1327.68  	81.2255
1330.55  	83.7727
1333.42  	85.7625
1336.3  	86.027
1339.17  	85.6539
1342.04  	86.2628
1344.92  	86.8025
1347.79  	87.0964
1350.67  	87.0312
1353.54  	86.7521
1356.41  	86.2805
1359.29  	85.7307
1362.16  	84.8019
1365.03  	84.3343
1367.91  	84.4227
1370.78  	84.8633
1373.66  	85.12
1376.53  	85.396
1379.4  	85.6948
1382.28  	85.8834
1385.15  	85.4659
1388.02  	85.1704
1390.9  	85.8871
1393.77  	86.7504
1396.65  	87.3268
1399.52  	87.519
1402.39  	87.7939
1405.27  	87.606
1408.14  	87.6475
1411.01  	87.8124
1413.89  	87.9878
1416.76  	87.915
1419.64  	88.1723
1422.51  	88.4984
1425.38  	88.818
1428.26  	88.4913
1431.13  	87.2727
1434  	86.036
1436.88  	84.8632
1439.75  	84.066
1442.63  	83.0653
1445.5  	81.6315
1448.37  	80.0358
1451.25  	79.0335
1454.12  	78.9172
1456.99  	79.1585
1459.87  	80.3509
1462.74  	81.4086
1465.62  	82.8137
1468.49  	84.3525
1471.36  	85.8221
1474.24  	87.426
1477.11  	88.6559
1479.98  	90.144
1482.86  	91.4614
1485.73  	92.3486
1488.61  	92.4759
1491.48  	92.0512
1494.35  	91.9277
1497.23  	90.5395
1500.1  	88.0201
1502.98  	85.0166
1505.85  	82.3242
1508.72  	76.4862
1511.6  	76.0425
1514.47  	78.0926
1517.34  	80.3107
1520.22  	80.9181
1523.09  	81.089
1525.97  	81.0665
1528.84  	81.6048
1531.71  	82.1638
1534.59  	83.1009
1537.46  	84.0424
1540.33  	84.8393
1543.21  	86.2082
1546.08  	87.59
1548.96  	88.753
1551.83  	90.0061
1554.7  	91.2025
1557.58  	92.0919
1560.45  	92.6751
1563.32  	93.9212
1566.2  	94.5766
1569.07  	94.9419
1571.95  	95.4381
1574.82  	95.6244
1577.69  	95.0729
1580.57  	95.4552
1583.44  	95.669
1586.31  	96.0731
1589.19  	96.3651
1592.06  	96.3411
1594.94  	96.0711
1597.81  	95.8846
1600.68  	95.5174
1603.56  	94.7984
1606.43  	94.0427
1609.3  	93.221
1612.18  	93.3802
1615.05  	93.7022
1617.93  	93.7385
1620.8  	93.2563
1623.67  	92.5419
1626.55  	91.6421
1629.42  	90.7557
1632.29  	89.4504
1635.17  	88.4089
1638.04  	87.5069
1640.92  	88.7083
1643.79  	91.1782
1646.66  	92.4356
1649.54  	93.0622
1652.41  	94.0444
1655.28  	92.7106
1658.16  	92.9362
1661.03  	92.7893
1663.91  	92.3395
1666.78  	91.5815
1669.65  	90.3055
1672.53  	89.1551
1675.4  	88.1386
1678.27  	86.3283
1681.15  	83.7558
1684.02  	83.1513
1686.9  	78.9498
1689.77  	75.288
1692.64  	71.9403
1695.52  	68.889
1698.39  	63.7091
1701.26  	58.8964
1704.14  	55.424
1707.01  	52.2183
1709.89  	48.9129
1712.76  	46.1435
1715.63  	45.0903
1718.51  	46.0029
1721.38  	47.275
1724.25  	49.9729
1727.13  	53.3394
1730  	56.6278
1732.88  	59.3784
1735.75  	65.8761
1738.62  	70.0229
1741.5  	76.5556
1744.37  	81.9473
1747.24  	86.5266
1750.12  	89.7282
1752.99  	91.8495
1755.87  	93.9803
1758.74  	95.3118
1761.61  	96.3914
1764.49  	97.4265
1767.36  	98.2365
1770.23  	98.8128
1773.11  	99.0795
1775.98  	99.216
1778.86  	99.5688
1781.73  	99.9087
1784.6  	100.181
1787.48  	100.39
1790.35  	100.548
1793.22  	100.733
1796.1  	100.623
1798.97  	100.805
1801.85  	100.866
1804.72  	101.22
1807.59  	101.238
1810.47  	101.246
1813.34  	101.439
1816.21  	101.594
1819.09  	101.554
1821.96  	101.656
1824.84  	101.766
1827.71  	101.826
1830.58  	101.641
1833.46  	101.712
1836.33  	101.961
1839.2  	102.071
1842.08  	102.086
1844.95  	101.959
1847.83  	102.032
1850.7  	102.185
1853.57  	102.039
1856.45  	102.099
1859.32  	102.335
1862.19  	102.232
1865.07  	102.256
1867.94  	102.138
1870.82  	102.057
1873.69  	102.224
1876.56  	102.111
1879.44  	102.114
1882.31  	102.401
1885.18  	102.342
1888.06  	102.215
1890.93  	102.284
1893.81  	102.385
1896.68  	102.263
1899.55  	102.342
1902.43  	102.397
1905.3  	102.646
1908.17  	102.583
1911.05  	102.511
1913.92  	102.576
1916.8  	102.743
1919.67  	102.569
1922.54  	102.434
1925.42  	102.805
1928.29  	102.909
1931.16  	102.922
1934.04  	102.85
1936.91  	103.133
1939.79  	103.314
1942.66  	103.107
1945.53  	103.041
1948.41  	103.399
1951.28  	103.408
1954.15  	103.437
1957.03  	103.345
1959.9  	103.667
1962.78  	103.88
1965.65  	103.84
1968.52  	103.61
1971.4  	103.819
1974.27  	104.151
1977.15  	103.667
1980.02  	103.307
1982.89  	103.468
1985.77  	103.467
1988.64  	103.053
1991.51  	103.237
1994.39  	103.405
1997.26  	103.852
2000.14  	103.62
2003.01  	103.44
2005.88  	103.904
2008.76  	104.129
2011.63  	103.278
2014.5  	103.535
2017.38  	104.373
2020.25  	104.022
2023.13  	102.921
2026  	103.154
2028.87  	104.291
2031.75  	103.597
2034.62  	103.263
2037.49  	103.03
2040.37  	103.396
2043.24  	102.785
2046.12  	102.478
2048.99  	102.927
2051.86  	102.932
2054.74  	102.601
2057.61  	102.678
2060.48  	102.734
2063.36  	103.027
2066.23  	102.713
2069.11  	102.782
2071.98  	102.907
2074.85  	103.214
2077.73  	102.856
2080.6  	102.922
2083.47  	103.067
2086.35  	103.012
2089.22  	102.844
2092.1  	102.893
2094.97  	103.286
2097.84  	103.365
2100.72  	103.265
2103.59  	103.13
2106.46  	103.351
2109.34  	103.428
2112.21  	103.485
2115.09  	103.207
2117.96  	103.595
2120.83  	103.707
2123.71  	103.678
2126.58  	103.695
2129.45  	103.999
2132.33  	104.206
2135.2  	103.981
2138.08  	104.209
2140.95  	104.218
2143.82  	104.504
2146.7  	104.306
2149.57  	104.488
2152.44  	104.959
2155.32  	105.099
2158.19  	104.685
2161.07  	104.491
2163.94  	104.783
2166.81  	104.213
2169.69  	103.819
2172.56  	103.816
2175.43  	104.137
2178.31  	103.866
2181.18  	103.41
2184.06  	103.454
2186.93  	104.071
2189.8  	103.85
2192.68  	103.581
2195.55  	103.642
2198.42  	103.834
2201.3  	103.678
2204.17  	103.547
2207.05  	103.67
2209.92  	103.916
2212.79  	103.622
2215.67  	103.348
2218.54  	103.437
2221.41  	103.501
2224.29  	103.41
2227.16  	103.178
2230.04  	103.177
2232.91  	103.305
2235.78  	103.074
2238.66  	103.009
2241.53  	103.262
2244.4  	103.337
2247.28  	103.095
2250.15  	103.113
2253.03  	103.211
2255.9  	103.2
2258.77  	103.187
2261.65  	103.168
2264.52  	103.286
2267.39  	103.268
2270.27  	103.238
2273.14  	103.249
2276.02  	103.193
2278.89  	103.212
2281.76  	103.085
2284.64  	103.059
2287.51  	102.962
2290.38  	102.929
2293.26  	102.858
2296.13  	102.775
2299.01  	102.574
2301.88  	102.662
2304.75  	102.57
2307.63  	102.451
2310.5  	102.484
2313.37  	102.432
2316.25  	102.455
2319.12  	102.343
2322  	102.202
2324.87  	102.03
2327.74  	102.059
2330.62  	102.084
2333.49  	102.457
2336.36  	102.618
2339.24  	102.558
2342.11  	102.346
2344.99  	102.113
2347.86  	101.797
2350.73  	101.987
2353.61  	102.609
2356.48  	102.915
2359.35  	102.874
2362.23  	102.66
2365.1  	102.782
2367.98  	102.77
2370.85  	102.491
2373.72  	102.493
2376.6  	102.395
2379.47  	102.432
2382.34  	102.447
2385.22  	102.812
2388.09  	103.11
2390.97  	103.258
2393.84  	103.34
2396.71  	103.419
2399.59  	103.464
2402.46  	103.526
2405.33  	103.507
2408.21  	103.46
2411.08  	103.529
2413.96  	103.538
2416.83  	103.593
2419.7  	103.589
2422.58  	103.577
2425.45  	103.576
2428.32  	103.596
2431.2  	103.547
2434.07  	103.63
2436.95  	103.632
2439.82  	103.601
2442.69  	103.613
2445.57  	103.691
2448.44  	103.661
2451.31  	103.588
2454.19  	103.613
2457.06  	103.635
2459.94  	103.627
2462.81  	103.602
2465.68  	103.588
2468.56  	103.575
2471.43  	103.628
2474.31  	103.566
2477.18  	103.567
2480.05  	103.633
2482.93  	103.623
2485.8  	103.59
2488.67  	103.616
2491.55  	103.575
2494.42  	103.565
2497.3  	103.535
2500.17  	103.577
2503.04  	103.634
2505.92  	103.62
2508.79  	103.645
2511.66  	103.654
2514.54  	103.633
2517.41  	103.576
2520.29  	103.59
2523.16  	103.661
2526.03  	103.676
2528.91  	103.671
2531.78  	103.593
2534.65  	103.63
2537.53  	103.642
2540.4  	103.569
2543.28  	103.619
2546.15  	103.619
2549.02  	103.675
2551.9  	103.691
2554.77  	103.551
2557.64  	103.656
2560.52  	103.658
2563.39  	103.562
2566.27  	103.535
2569.14  	103.557
2572.01  	103.594
2574.89  	103.554
2577.76  	103.474
2580.63  	103.507
2583.51  	103.468
2586.38  	103.411
2589.26  	103.391
2592.13  	103.419
2595  	103.353
2597.88  	103.322
2600.75  	103.331
2603.62  	103.365
2606.5  	103.328
2609.37  	103.252
2612.25  	103.288
2615.12  	103.338
2617.99  	103.297
2620.87  	103.26
2623.74  	103.292
2626.61  	103.315
2629.49  	103.307
2632.36  	103.288
2635.24  	103.295
2638.11  	103.31
2640.98  	103.304
2643.86  	103.321
2646.73  	103.365
2649.6  	103.386
2652.48  	103.391
2655.35  	103.408
2658.23  	103.456
2661.1  	103.467
2663.97  	103.46
2666.85  	103.487
2669.72  	103.495
2672.59  	103.568
2675.47  	103.578
2678.34  	103.599
2681.22  	103.595
2684.09  	103.611
2686.96  	103.616
2689.84  	103.592
2692.71  	103.623
2695.58  	103.619
2698.46  	103.594
2701.33  	103.582
2704.21  	103.631
2707.08  	103.601
2709.95  	103.575
2712.83  	103.571
2715.7  	103.58
2718.57  	103.562
2721.45  	103.575
2724.32  	103.544
2727.2  	103.593
2730.07  	103.554
2732.94  	103.51
2735.82  	103.469
2738.69  	103.522
2741.56  	103.5
2744.44  	103.492
2747.31  	103.525
2750.19  	103.551
2753.06  	103.53
2755.93  	103.526
2758.81  	103.502
2761.68  	103.518
2764.55  	103.501
2767.43  	103.485
2770.3  	103.519
2773.18  	103.499
2776.05  	103.457
2778.92  	103.438
2781.8  	103.477
2784.67  	103.485
2787.54  	103.408
2790.42  	103.373
2793.29  	103.353
2796.17  	103.326
2799.04  	103.289
2801.91  	103.227
2804.79  	103.168
2807.66  	103.118
2810.53  	103.036
2813.41  	102.957
2816.28  	102.91
2819.16  	102.808
2822.03  	102.711
2824.9  	102.597
2827.78  	102.441
2830.65  	102.253
2833.52  	101.917
2836.4  	101.491
2839.27  	100.979
2842.15  	100.333
2845.02  	99.5544
2847.89  	98.8097
2850.77  	97.9521
2853.64  	97.0114
2856.51  	95.8807
2859.39  	94.7475
2862.26  	93.9354
2865.14  	93.5611
2868.01  	93.4217
2870.88  	93.4985
2873.76  	93.8029
2876.63  	94.1783
2879.5  	94.6226
2882.38  	94.9819
2885.25  	95.1597
2888.13  	94.9783
2891  	94.6956
2893.87  	94.3132
2896.75  	93.9006
2899.62  	93.4745
2902.49  	93.0737
2905.37  	92.6517
2908.24  	92.1323
2911.12  	91.546
2913.99  	90.943
2916.86  	90.1709
2919.74  	89.3245
2922.61  	88.3046
2925.48  	87.2854
2928.36  	86.3764
2931.23  	85.6395
2934.11  	84.9167
2936.98  	84.262
2939.85  	83.6874
2942.73  	83.2718
2945.6  	83.0634
2948.47  	83.0886
2951.35  	83.4382
2954.22  	84.1687
2957.1  	85.2255
2959.97  	86.5122
2962.84  	87.9705
2965.72  	89.4145
2968.59  	90.8434
2971.47  	92.2619
2974.34  	93.5019
2977.21  	94.6685
2980.09  	95.7716
2982.96  	96.7355
2985.83  	97.676
2988.71  	98.4675
2991.58  	99.1968
2994.46  	99.7062
2997.33  	100.244
3000.2  	100.748
3003.08  	101.226
3005.95  	101.621
3008.82  	102.078
3011.7  	102.287
3014.57  	102.513
3017.45  	102.732
3020.32  	102.825
3023.19  	102.981
3026.07  	103.039
3028.94  	103.136
3031.81  	103.092
3034.69  	103.142
3037.56  	103.127
3040.44  	103.194
3043.31  	103.204
3046.18  	103.245
3049.06  	103.218
3051.93  	103.203
3054.8  	103.281
3057.68  	103.191
3060.55  	103.179
3063.43  	103.211
3066.3  	103.225
3069.17  	103.257
3072.05  	103.374
3074.92  	103.37
3077.79  	103.482
3080.67  	103.41
3083.54  	103.447
3086.42  	103.526
3089.29  	103.53
3092.16  	103.536
3095.04  	103.517
3097.91  	103.504
3100.78  	103.459
3103.66  	103.412
3106.53  	103.51
3109.41  	103.582
3112.28  	103.597
3115.15  	103.621
3118.03  	103.637
3120.9  	103.652
3123.77  	103.69
3126.65  	103.633
3129.52  	103.693
3132.4  	103.708
3135.27  	103.65
3138.14  	103.667
3141.02  	103.658
3143.89  	103.681
3146.76  	103.619
3149.64  	103.659
3152.51  	103.609
3155.39  	103.595
3158.26  	103.609
3161.13  	103.52
3164.01  	103.549
3166.88  	103.545
3169.75  	103.491
3172.63  	103.506
3175.5  	103.439
3178.38  	103.377
3181.25  	103.429
3184.12  	103.409
3187  	103.339
3189.87  	103.407
3192.74  	103.411
3195.62  	103.33
3198.49  	103.247
3201.37  	103.248
3204.24  	103.231
3207.11  	103.278
3209.99  	103.177
3212.86  	103.207
3215.73  	103.089
3218.61  	103.117
3221.48  	103.029
3224.36  	103.057
3227.23  	102.918
3230.1  	102.882
3232.98  	102.917
3235.85  	102.865
3238.72  	102.871
3241.6  	102.805
3244.47  	102.632
3247.35  	102.644
3250.22  	102.63
3253.09  	102.512
3255.97  	102.472
3258.84  	102.402
3261.71  	102.287
3264.59  	102.268
3267.46  	102.235
3270.34  	102.2
3273.21  	102.101
3276.08  	102.007
3278.96  	102.015
3281.83  	101.976
3284.7  	101.863
3287.58  	101.862
3290.45  	101.777
3293.33  	101.685
3296.2  	101.635
3299.07  	101.581
3301.95  	101.614
3304.82  	101.524
3307.69  	101.452
3310.57  	101.358
3313.44  	101.3
3316.32  	101.244
3319.19  	101.216
3322.06  	101.144
3324.94  	101.069
3327.81  	100.957
3330.68  	100.864
3333.56  	100.8
3336.43  	100.561
3339.31  	100.546
3342.18  	100.517
3345.05  	100.508
3347.93  	100.422
3350.8  	100.329
3353.67  	100.281
3356.55  	100.117
3359.42  	100.14
3362.3  	99.9384
3365.17  	99.8812
3368.04  	99.9102
3370.92  	99.9305
3373.79  	99.9149
3376.66  	99.9411
3379.54  	100.004
3382.41  	99.9812
3385.29  	99.9608
3388.16  	100.256
3391.03  	100.5
3393.91  	100.547
3396.78  	100.735
3399.65  	101.013
3402.53  	101.203
3405.4  	101.311
3408.28  	101.532
3411.15  	101.728
3414.02  	101.839
3416.9  	101.931
3419.77  	101.995
3422.64  	101.947
3425.52  	102.271
3428.39  	102.366
3431.27  	102.494
3434.14  	102.527
3437.01  	102.636
3439.89  	102.607
3442.76  	102.521
3445.63  	102.617
3448.51  	102.487
3451.38  	102.847
3454.26  	102.797
3457.13  	103.018
3460  	103.004
3462.88  	103.009
3465.75  	103.106
3468.63  	103.243
3471.5  	103.363
3474.37  	103.362
3477.25  	103.558
3480.12  	103.559
3482.99  	103.264
3485.87  	103.598
3488.74  	103.52
3491.62  	103.676
3494.49  	103.811
3497.36  	103.795
3500.24  	103.867
3503.11  	103.435
3505.98  	103.695
3508.86  	103.648
3511.73  	103.602
3514.61  	103.867
3517.48  	104.06
3520.35  	104.108
3523.23  	103.727
3526.1  	103.728
3528.97  	103.685
3531.85  	103.914
3534.72  	104.319
3537.6  	104.039
3540.47  	104.618
3543.34  	104.748
3546.22  	104.254
3549.09  	104.371
3551.96  	104.49
3554.84  	104.22
3557.71  	104.823
3560.59  	105.034
3563.46  	105.16
3566.33  	105.08
3569.21  	104.354
3572.08  	104.581
3574.95  	104.798
3577.83  	104.884
3580.7  	105.039
3583.58  	105.311
3586.45  	105.405
3589.32  	104.799
3592.2  	104.955
3595.07  	104.948
3597.94  	104.89
3600.82  	105.086
3603.69  	105.407
3606.57  	105.578
3609.44  	105.526
3612.31  	105.356
3615.19  	104.925
3618.06  	105.354
3620.93  	104.927
3623.81  	105.771
3626.68  	105.756
3629.56  	105.469
3632.43  	105.104
3635.3  	104.904
3638.18  	105.154
3641.05  	105.767
3643.92  	106.195
3646.8  	106.853
3649.67  	106.558
3652.55  	105.613
3655.42  	105.947
3658.29  	105.717
3661.17  	106.044
3664.04  	106.528
3666.91  	106.735
3669.79  	107.419
3672.66  	106.714
3675.54  	106.484
3678.41  	106.15
3681.28  	106.258
3684.16  	106.716
3687.03  	107.055
3689.9  	106.938
3692.78  	106.452
3695.65  	106.301
3698.53  	106.33
3701.4  	106.802
3704.27  	106.862
3707.15  	107.056
3710.02  	107.558
3712.89  	106.904
3715.77  	106.712
3718.64  	107.071
3721.52  	106.928
3724.39  	106.918
3727.26  	107.305
3730.14  	107.14
3733.01  	107.617
3735.88  	106.943
3738.76  	106.627
3741.63  	106.962
3744.51  	107.812
3747.38  	107.065
3750.25  	107.29
3753.13  	106.401
3756  	106.71
3758.87  	106.643
3761.75  	106.673
3764.62  	107.089
3767.5  	106.797
3770.37  	106.788
3773.24  	107.086
3776.12  	107.202
3778.99  	107.313
3781.86  	107.062
3784.74  	107.228
3787.61  	106.963
3790.49  	107.434
3793.36  	107.655
3796.23  	108.088
3799.11  	107.888
3801.98  	108.038
3804.85  	107.22
3807.73  	107.568
3810.6  	107.445
3813.48  	107.711
3816.35  	108.15
3819.22  	107.899
3822.1  	107.711
3824.97  	107.21
3827.84  	107.463
3830.72  	107.838
3833.59  	107.822
3836.47  	108.306
3839.34  	107.634
3842.21  	107.401
3845.09  	107.35
3847.96  	107.694
3850.83  	107.778
3853.71  	107.904
3856.58  	107.468
3859.46  	107.412
3862.33  	107.605
3865.2  	107.445
3868.08  	107.642
3870.95  	106.966
3873.82  	107.453
3876.7  	107.425
3879.57  	107.624
3882.45  	107.06
3885.32  	107.44
3888.19  	106.744
3891.07  	107.583
3893.94  	107.051
3896.81  	107.605
3899.69  	107.692
3902.56  	107.364
3905.44  	106.475
3908.31  	107.068
3911.18  	107.15
3914.06  	107.432
3916.93  	107.396
3919.8  	107.406
3922.68  	107.397
3925.55  	107.23
3928.43  	107.393
3931.3  	107.341
3934.17  	107.111
3937.05  	107.435
3939.92  	107.537
3942.79  	107.499
3945.67  	107.498
3948.54  	107.218
3951.42  	107.221
3954.29  	107.553
3957.16  	107.52
3960.04  	107.496
3962.91  	107.324
3965.79  	107.665
3968.66  	107.535
3971.53  	107.572
3974.41  	107.517
3977.28  	107.457
3980.15  	107.662
3983.03  	107.685
3985.9  	107.788
3988.78  	107.83
3991.65  	107.649
3994.52  	107.668
3997.4  	107.761
4000.27  	107.849