File: Dados - FTIR/amostra_sem_unha.txt
x               y
399.452  	100.15
402.326  	100.256
405.2  	101.083
408.074  	99.3788
410.947  	99.965
413.821  	99.7405
416.695  	98.352
419.569  	100.134
422.442  	98.9204
425.316  	100.737
428.19  	101.509
431.064  	101.376
433.937  	100.51
436.811  	98.3892
439.685  	98.5198
442.559  	99.4434
445.432  	99.0178
448.306  	99.7095
451.18  	100.538
454.054  	99.0079
456.927  	99.5552
459.801  	100.591
462.675  	101.057
465.549  	101.241
468.422  	100.874
471.296  	99.8182
474.17  	100.457
477.044  	99.9903
479.917  	100.407
482.791  	100.029
485.665  	100.132
488.539  	100.273
491.412  	100.827
494.286  	100.358
497.16  	100.436
500.034  	100.019
502.908  	99.9274
505.781  	99.8564
508.655  	100.43
511.529  	100.43
514.403  	100.444
517.276  	100.83
520.15  	100.385
523.024  	100.624
525.898  	100.337
528.771  	100.294
531.645  	100.121
534.519  	100.706
537.393  	100.314
540.266  	99.9064
543.14  	100.239
546.014  	100.228
548.888  	100.517
551.761  	100.524
554.635  	100.384
557.509  	100.622
560.383  	100.486
563.256  	100.531
566.13  	100.094
569.004  	100.09
571.878  	100.334
574.751  	100.292
577.625  	100.329
580.499  	100.376
583.373  	100.366
586.246  	100.446
589.12  	100.339
591.994  	100.272
594.868  	100.339
597.742  	100.136
600.615  	100.423
603.489  	100.569
606.363  	100.378
609.237  	100.226
612.11  	100.242
614.984  	100.325
617.858  	100.322
620.732  	100.373
623.605  	100.309
626.479  	100.387
629.353  	100.347
632.227  	100.402
635.1  	100.454
637.974  	100.424
640.848  	100.384
643.722  	100.331
646.595  	100.397
649.469  	100.431
652.343  	100.374
655.217  	100.305
658.09  	100.365
660.964  	100.379
663.838  	100.506
666.712  	100.485
669.585  	100.414
672.459  	100.45
675.333  	100.443
678.207  	100.391
681.08  	100.403
683.954  	100.291
686.828  	100.255
689.702  	100.299
692.576  	100.266
695.449  	100.383
698.323  	100.41
701.197  	100.442
704.071  	100.427
706.944  	100.362
709.818  	100.489
712.692  	100.393
715.566  	100.37
718.439  	100.458
721.313  	100.499
724.187  	100.563
727.061  	100.37
729.934  	100.352
732.808  	100.398
735.682  	100.415
738.556  	100.335
741.429  	100.418
744.303  	100.475
747.177  	100.359
750.051  	100.457
752.924  	100.356
755.798  	100.275
758.672  	100.288
761.546  	100.402
764.419  	100.451
767.293  	100.506
770.167  	100.338
773.041  	100.413
775.914  	100.352
778.788  	100.356
781.662  	100.411
784.536  	100.389
787.409  	100.24
790.283  	100.361
793.157  	100.519
796.031  	100.466
798.905  	100.38
801.778  	100.374
804.652  	100.364
807.526  	100.358
810.4  	100.382
813.273  	100.384
816.147  	100.28
819.021  	100.591
821.895  	100.356
824.768  	100.389
827.642  	100.357
830.516  	100.379
833.39  	100.383
836.263  	100.362
839.137  	100.436
842.011  	100.464
844.885  	100.347
847.758  	100.409
850.632  	100.464
853.506  	100.33
856.38  	100.416
859.253  	100.483
862.127  	100.423
865.001  	100.419
867.875  	100.455
870.748  	100.402
873.622  	100.422
876.496  	100.433
879.37  	100.489
882.243  	100.329
885.117  	100.409
887.991  	100.45
890.865  	100.439
893.739  	100.42
896.612  	100.411
899.486  	100.448
902.36  	100.434
905.234  	100.454
908.107  	100.385
910.981  	100.416
913.855  	100.411
916.729  	100.404
919.602  	100.442
922.476  	100.522
925.35  	100.48
928.224  	100.384
931.097  	100.41
933.971  	100.414
936.845  	100.423
939.719  	100.395
942.592  	100.458
945.466  	100.487
948.34  	100.44
951.214  	100.422
954.087  	100.482
956.961  	100.452
959.835  	100.466
962.709  	100.446
965.582  	100.465
968.456  	100.454
971.33  	100.448
974.204  	100.473
977.077  	100.439
979.951  	100.446
982.825  	100.446
985.699  	100.435
988.573  	100.47
991.446  	100.458
994.32  	100.45
997.194  	100.48
1000.07  	100.447
1002.94  	100.445
1005.82  	100.477
1008.69  	100.414
1011.56  	100.464
1014.44  	100.412
1017.31  	100.451
1020.18  	100.47
1023.06  	100.443
1025.93  	100.377
1028.81  	100.42
1031.68  	100.463
1034.55  	100.404
1037.43  	100.388
1040.3  	100.368
1043.17  	100.423
1046.05  	100.41
1048.92  	100.41
1051.8  	100.371
1054.67  	100.375
1057.54  	100.369
1060.42  	100.396
1063.29  	100.475
1066.16  	100.423
1069.04  	100.474
1071.91  	100.407
1074.79  	100.47
1077.66  	100.47
1080.53  	100.458
1083.41  	100.532
1086.28  	100.457
1089.15  	100.489
1092.03  	100.537
1094.9  	100.539
1097.78  	100.493
1100.65  	100.501
1103.52  	100.517
1106.4  	100.55
1109.27  	100.556
1112.14  	100.505
1115.02  	100.453
1117.89  	100.482
1120.77  	100.477
1123.64  	100.452
1126.51  	100.429
1129.39  	100.484
1132.26  	100.475
1135.13  	100.489
1138.01  	100.439
1140.88  	100.464
1143.76  	100.441
1146.63  	100.443
1149.5  	100.464
1152.38  	100.452
1155.25  	100.468
1158.12  	100.464
1161  	100.461
1163.87  	100.46
1166.75  	100.469
1169.62  	100.459
1172.49  	100.459
1175.37  	100.499
1178.24  	100.473
1181.11  	100.468
1183.99  	100.424
1186.86  	100.447
1189.74  	100.43
1192.61  	100.447
1195.48  	100.447
1198.36  	100.445
1201.23  	100.441
1204.1  	100.44
1206.98  	100.457
1209.85  	100.429
1212.73  	100.422
1215.6  	100.484
1218.47  	100.428
1221.35  	100.461
1224.22  	100.451
1227.09  	100.455
1229.97  	100.454
1232.84  	100.466
1235.72  	100.452
1238.59  	100.456
1241.46  	100.413
1244.34  	100.456
1247.21  	100.46
1250.08  	100.463
1252.96  	100.454
1255.83  	100.467
1258.71  	100.436
1261.58  	100.465
1264.45  	100.464
1267.33  	100.451
1270.2  	100.476
1273.07  	100.419
1275.95  	100.436
1278.82  	100.476
1281.7  	100.417
1284.57  	100.426
1287.44  	100.437
1290.32  	100.441
1293.19  	100.461
1296.06  	100.467
1298.94  	100.44
1301.81  	100.471
1304.69  	100.487
1307.56  	100.476
1310.43  	100.473
1313.31  	100.454
1316.18  	100.462
1319.05  	100.419
1321.93  	100.472
1324.8  	100.451
1327.68  	100.434
1330.55  	100.476
1333.42  	100.508
1336.3  	100.472
1339.17  	100.443
1342.04  	100.486
1344.92  	100.485
1347.79  	100.495
1350.67  	100.496
1353.54  	100.49
1356.41  	100.493
1359.29  	100.497
1362.16  	100.473
1365.03  	100.479
1367.91  	100.47
1370.78  	100.496
1373.66  	100.472
1376.53  	100.469
1379.4  	100.439
1382.28  	100.513
1385.15  	100.476
1388.02  	100.467
1390.9  	100.458
1393.77  	100.503
1396.65  	100.47
1399.52  	100.45
1402.39  	100.467
1405.27  	100.481
1408.14  	100.489
1411.01  	100.454
1413.89  	100.561
1416.76  	100.475
1419.64  	100.508
1422.51  	100.419
1425.38  	100.574
1428.26  	100.566
1431.13  	100.567
1434  	100.517
1436.88  	100.339
1439.75  	100.538
1442.63  	100.512
1445.5  	100.593
1448.37  	100.546
1451.25  	100.488
1454.12  	100.571
1456.99  	100.673
1459.87  	100.531
1462.74  	100.507
1465.62  	100.528
1468.49  	100.481
1471.36  	100.523
1474.24  	100.551
1477.11  	100.462
1479.98  	100.517
1482.86  	100.531
1485.73  	100.531
1488.61  	100.508
1491.48  	100.559
1494.35  	100.594
1497.23  	100.647
1500.1  	100.492
1502.98  	100.533
1505.85  	100.581
1508.72  	100.514
1511.6  	100.555
1514.47  	100.53
1517.34  	100.576
1520.22  	100.404
1523.09  	100.463
1525.97  	100.535
1528.84  	100.576
1531.71  	100.522
1534.59  	100.514
1537.46  	100.489
1540.33  	100.509
1543.21  	100.466
1546.08  	100.543
1548.96  	100.459
1551.83  	100.513
1554.7  	100.496
1557.58  	100.554
1560.45  	100.569
1563.32  	100.475
1566.2  	100.526
1569.07  	100.443
1571.95  	100.469
1574.82  	100.494
1577.69  	100.453
1580.57  	100.484
1583.44  	100.465
1586.31  	100.44
1589.19  	100.452
1592.06  	100.502
1594.94  	100.525
1597.81  	100.566
1600.68  	100.533
1603.56  	100.592
1606.43  	100.578
1609.3  	100.545
1612.18  	100.597
1615.05  	100.578
1617.93  	100.651
1620.8  	100.564
1623.67  	100.656
1626.55  	100.554
1629.42  	100.569
1632.29  	100.591
1635.17  	100.676
1638.04  	100.626
1640.92  	100.516
1643.79  	100.608
1646.66  	100.592
1649.54  	100.547
1652.41  	100.585
1655.28  	100.527
1658.16  	100.549
1661.03  	100.517
1663.91  	100.543
1666.78  	100.561
1669.65  	100.623
1672.53  	100.62
1675.4  	100.551
1678.27  	100.507
1681.15  	100.535
1684.02  	100.725
1686.9  	100.554
1689.77  	100.607
1692.64  	100.615
1695.52  	100.591
1698.39  	100.542
1701.26  	100.511
1704.14  	100.578
1707.01  	100.585
1709.89  	100.578
1712.76  	100.495
1715.63  	100.587
1718.51  	100.44
1721.38  	100.525
1724.25  	100.567
1727.13  	100.53
1730  	100.565
1732.88  	100.561
1735.75  	100.562
1738.62  	100.602
1741.5  	100.59
1744.37  	100.559
1747.24  	100.564
1750.12  	100.549
1752.99  	100.579
1755.87  	100.616
1758.74  	100.584
1761.61  	100.541
1764.49  	100.511
1767.36  	100.566
1770.23  	100.606
1773.11  	100.558
1775.98  	100.533
1778.86  	100.546
1781.73  	100.55
1784.6  	100.552
1787.48  	100.593
1790.35  	100.592
1793.22  	100.605
1796.1  	100.55
1798.97  	100.625
1801.85  	100.578
1804.72  	100.596
1807.59  	100.608
1810.47  	100.638
1813.34  	100.67
1816.21  	100.631
1819.09  	100.615
1821.96  	100.652
1824.84  	100.683
1827.71  	100.667
1830.58  	100.71
1833.46  	100.671
1836.33  	100.65
1839.2  	100.716
1842.08  	100.637
1844.95  	100.674
1847.83  	100.603
1850.7  	100.639
1853.57  	100.583
1856.45  	100.626
1859.32  	100.638
1862.19  	100.743
1865.07  	100.659
1867.94  	100.7
1870.82  	100.603
1873.69  	100.512
1876.56  	100.648
1879.44  	100.702
1882.31  	100.69
1885.18  	100.741
1888.06  	100.644
1890.93  	100.694
1893.81  	100.55
1896.68  	100.638
1899.55  	100.693
1902.43  	100.595
1905.3  	100.647
1908.17  	100.569
1911.05  	100.724
1913.92  	100.652
1916.8  	100.633
1919.67  	100.675
1922.54  	100.653
1925.42  	100.843
1928.29  	100.783
1931.16  	100.717
1934.04  	100.752
1936.91  	100.754
1939.79  	100.685
1942.66  	100.553
1945.53  	101.141
1948.41  	100.799
1951.28  	100.879
1954.15  	100.891
1957.03  	100.918
1959.9  	100.523
1962.78  	100.762
1965.65  	100.794
1968.52  	101.089
1971.4  	100.907
1974.27  	100.396
1977.15  	100.711
1980.02  	100.556
1982.89  	100.723
1985.77  	100.628
1988.64  	100.449
1991.51  	101.147
1994.39  	100.344
1997.26  	100.392
2000.14  	100.368
2003.01  	100.227
2005.88  	100.18
2008.76  	100.352
2011.63  	100.415
2014.5  	100.377
2017.38  	100.27
2020.25  	100.29
2023.13  	100.442
2026  	100.501
2028.87  	100.865
2031.75  	100.241
2034.62  	100.22
2037.49  	99.9774
2040.37  	100.013
2043.24  	100.137
2046.12  	100.36
2048.99  	100.494
2051.86  	100.038
2054.74  	100.191
2057.61  	100.706
2060.48  	100.597
2063.36  	100.484
2066.23  	100.258
2069.11  	100.568
2071.98  	100.464
2074.85  	100.499
2077.73  	100.542
2080.6  	100.679
2083.47  	100.571
2086.35  	100.376
2089.22  	100.723
2092.1  	100.854
2094.97  	100.781
2097.84  	100.869
2100.72  	100.508
2103.59  	100.635
2106.46  	100.677
2109.34  	100.698
2112.21  	100.626
2115.09  	100.718
2117.96  	100.682
2120.83  	100.73
2123.71  	100.812
2126.58  	101.002
2129.45  	100.896
2132.33  	101.071
2135.2  	101.009
2138.08  	100.645
2140.95  	101.082
2143.82  	100.941
2146.7  	101.051
2149.57  	100.616
2152.44  	101.126
2155.32  	100.952
2158.19  	101.029
2161.07  	100.841
2163.94  	101.009
2166.81  	100.732
2169.69  	100.358
2172.56  	100.645
2175.43  	100.627
2178.31  	100.169
2181.18  	100.364
2184.06  	100.162
2186.93  	100.44
2189.8  	100.704
2192.68  	100.904
2195.55  	101.002
2198.42  	100.367
2201.3  	100.344
2204.17  	100.245
2207.05  	100.476
2209.92  	100.563
2212.79  	100.216
2215.67  	100.458
2218.54  	100.275
2221.41  	100.423
2224.29  	100.625
2227.16  	100.721
2230.04  	100.381
2232.91  	100.48
2235.78  	100.259
2238.66  	100.432
2241.53  	100.436
2244.4  	100.522
2247.28  	100.333
2250.15  	100.464
2253.03  	100.436
2255.9  	100.327
2258.77  	100.539
2261.65  	100.41
2264.52  	100.385
2267.39  	100.462
2270.27  	100.315
2273.14  	100.412
2276.02  	100.34
2278.89  	100.505
2281.76  	100.401
2284.64  	100.494
2287.51  	100.502
2290.38  	100.505
2293.26  	100.528
2296.13  	100.525
2299.01  	100.516
2301.88  	100.6
2304.75  	100.5
2307.63  	100.596
2310.5  	100.607
2313.37  	100.633
2316.25  	100.637
2319.12  	100.576
2322  	100.643
2324.87  	100.647
2327.74  	100.817
2330.62  	100.674
2333.49  	100.552
2336.36  	100.51
2339.24  	100.643
2342.11  	100.725
2344.99  	100.541
2347.86  	100.679
2350.73  	100.635
2353.61  	100.658
2356.48  	100.631
2359.35  	100.504
2362.23  	100.505
2365.1  	100.301
2367.98  	100.193
2370.85  	100.27
2373.72  	100.33
2376.6  	100.365
2379.47  	100.445
2382.34  	100.492
2385.22  	100.543
2388.09  	100.593
2390.97  	100.583
2393.84  	100.599
2396.71  	100.678
2399.59  	100.583
2402.46  	100.699
2405.33  	100.666
2408.21  	100.702
2411.08  	100.679
2413.96  	100.708
2416.83  	100.747
2419.7  	100.694
2422.58  	100.649
2425.45  	100.65
2428.32  	100.684
2431.2  	100.747
2434.07  	100.56
2436.95  	100.609
2439.82  	100.626
2442.69  	100.58
2445.57  	100.611
2448.44  	100.613
2451.31  	100.673
2454.19  	100.667
2457.06  	100.648
2459.94  	100.741
2462.81  	100.71
2465.68  	100.747
2468.56  	100.718
2471.43  	100.785
2474.31  	100.687
2477.18  	100.697
2480.05  	100.7
2482.93  	100.721
2485.8  	100.71
2488.67  	100.615
2491.55  	100.685
2494.42  	100.659
2497.3  	100.648
2500.17  	100.704
2503.04  	100.669
2505.92  	100.742
2508.79  	100.78
2511.66  	100.709
2514.54  	100.631
2517.41  	100.675
2520.29  	100.722
2523.16  	100.714
2526.03  	100.745
2528.91  	100.71
2531.78  	100.717
2534.65  	100.682
2537.53  	100.696
2540.4  	100.646
2543.28  	100.662
2546.15  	100.613
2549.02  	100.636
2551.9  	100.654
2554.77  	100.676
2557.64  	100.75
2560.52  	100.586
2563.39  	100.587
2566.27  	100.586
2569.14  	100.682
2572.01  	100.633
2574.89  	100.654
2577.76  	100.599
2580.63  	100.58
2583.51  	100.624
2586.38  	100.604
2589.26  	100.625
2592.13  	100.541
2595  	100.507
2597.88  	100.579
2600.75  	100.637
2603.62  	100.571
2606.5  	100.548
2609.37  	100.573
2612.25  	100.531
2615.12  	100.565
2617.99  	100.491
2620.87  	100.538
2623.74  	100.568
2626.61  	100.588
2629.49  	100.58
2632.36  	100.577
2635.24  	100.621
2638.11  	100.605
2640.98  	100.596
2643.86  	100.618
2646.73  	100.604
2649.6  	100.626
2652.48  	100.686
2655.35  	100.622
2658.23  	100.661
2661.1  	100.638
2663.97  	100.677
2666.85  	100.676
2669.72  	100.689
2672.59  	100.711
2675.47  	100.718
2678.34  	100.747
2681.22  	100.744
2684.09  	100.748
2686.96  	100.741
2689.84  	100.756
2692.71  	100.752
2695.58  	100.741
2698.46  	100.779
2701.33  	100.767
2704.21  	100.766
2707.08  	100.767
2709.95  	100.769
2712.83  	100.771
2715.7  	100.766
2718.57  	100.786
2721.45  	100.794
2724.32  	100.789
2727.2  	100.781
2730.07  	100.763
2732.94  	100.762
2735.82  	100.774
2738.69  	100.764
2741.56  	100.8
2744.44  	100.801
2747.31  	100.814
2750.19  	100.812
2753.06  	100.765
2755.93  	100.777
2758.81  	100.743
2761.68  	100.811
2764.55  	100.795
2767.43  	100.803
2770.3  	100.799
2773.18  	100.758
2776.05  	100.789
2778.92  	100.802
2781.8  	100.814
2784.67  	100.799
2787.54  	100.797
2790.42  	100.8
2793.29  	100.809
2796.17  	100.823
2799.04  	100.747
2801.91  	100.76
2804.79  	100.815
2807.66  	100.769
2810.53  	100.821
2813.41  	100.776
2816.28  	100.773
2819.16  	100.806
2822.03  	100.787
2824.9  	100.854
2827.78  	100.804
2830.65  	100.805
2833.52  	100.81
2836.4  	100.799
2839.27  	100.81
2842.15  	100.831
2845.02  	100.802
2847.89  	100.795
2850.77  	100.842
2853.64  	100.874
2856.51  	100.791
2859.39  	100.822
2862.26  	100.786
2865.14  	100.804
2868.01  	100.787
2870.88  	100.838
2873.76  	100.809
2876.63  	100.818
2879.5  	100.78
2882.38  	100.833
2885.25  	100.752
2888.13  	100.799
2891  	100.846
2893.87  	100.845
2896.75  	100.847
2899.62  	100.853
2902.49  	100.803
2905.37  	100.824
2908.24  	100.813
2911.12  	100.882
2913.99  	100.855
2916.86  	100.859
2919.74  	100.817
2922.61  	100.831
2925.48  	100.885
2928.36  	100.869
2931.23  	100.806
2934.11  	100.798
2936.98  	100.859
2939.85  	100.828
2942.73  	100.839
2945.6  	100.758
2948.47  	100.872
2951.35  	100.821
2954.22  	100.821
2957.1  	100.834
2959.97  	100.84
2962.84  	100.816
2965.72  	100.839
2968.59  	100.864
2971.47  	100.82
2974.34  	100.906
2977.21  	100.807
2980.09  	100.877
2982.96  	100.843
2985.83  	100.907
2988.71  	100.866
2991.58  	100.842
2994.46  	100.859
2997.33  	100.856
3000.2  	100.87
3003.08  	100.855
3005.95  	100.844
3008.82  	100.875
3011.7  	100.854
3014.57  	100.827
3017.45  	100.904
3020.32  	100.882
3023.19  	100.909
3026.07  	100.827
3028.94  	100.862
3031.81  	100.88
3034.69  	100.926
3037.56  	100.868
3040.44  	100.83
3043.31  	100.859
3046.18  	100.882
3049.06  	100.928
3051.93  	100.881
3054.8  	100.904
3057.68  	100.848
3060.55  	100.831
3063.43  	100.88
3066.3  	100.877
3069.17  	100.827
3072.05  	100.906
3074.92  	100.87
3077.79  	100.865
3080.67  	100.919
3083.54  	100.875
3086.42  	100.87
3089.29  	100.87
3092.16  	100.838
3095.04  	100.869
3097.91  	100.888
3100.78  	100.918
3103.66  	100.847
3106.53  	100.864
3109.41  	100.91
3112.28  	100.882
3115.15  	100.914
3118.03  	100.889
3120.9  	100.893
3123.77  	100.901
3126.65  	100.881
3129.52  	100.913
3132.4  	100.842
3135.27  	100.889
3138.14  	100.884
3141.02  	100.895
3143.89  	100.93
3146.76  	100.876
3149.64  	100.977
3152.51  	100.923
3155.39  	100.939
3158.26  	100.877
3161.13  	100.942
3164.01  	100.964
3166.88  	100.91
3169.75  	100.885
3172.63  	100.967
3175.5  	100.927
3178.38  	100.924
3181.25  	100.953
3184.12  	100.908
3187  	100.896
3189.87  	100.924
3192.74  	100.942
3195.62  	100.991
3198.49  	100.972
3201.37  	100.891
3204.24  	100.962
3207.11  	100.896
3209.99  	100.914
3212.86  	100.881
3215.73  	100.844
3218.61  	100.884
3221.48  	101.003
3224.36  	100.964
3227.23  	100.924
3230.1  	100.924
3232.98  	100.885
3235.85  	100.857
3238.72  	100.902
3241.6  	100.911
3244.47  	100.917
3247.35  	100.926
3250.22  	100.857
3253.09  	100.818
3255.97  	100.916
3258.84  	100.84
3261.71  	100.916
3264.59  	100.948
3267.46  	100.985
3270.34  	100.888
3273.21  	100.884
3276.08  	100.75
3278.96  	100.821
3281.83  	100.964
3284.7  	101.004
3287.58  	100.882
3290.45  	100.813
3293.33  	100.798
3296.2  	100.961
3299.07  	100.906
3301.95  	100.907
3304.82  	100.837
3307.69  	100.89
3310.57  	100.933
3313.44  	100.937
3316.32  	100.841
3319.19  	100.844
3322.06  	100.905
3324.94  	100.9
3327.81  	100.928
3330.68  	100.933
3333.56  	100.913
3336.43  	100.826
3339.31  	100.923
3342.18  	100.929
3345.05  	101.043
3347.93  	100.924
3350.8  	100.881
3353.67  	101.008
3356.55  	100.972
3359.42  	100.964
3362.3  	100.941
3365.17  	100.917
3368.04  	100.968
3370.92  	100.918
3373.79  	101.005
3376.66  	101.033
3379.54  	100.986
3382.41  	100.924
3385.29  	100.954
3388.16  	100.938
3391.03  	100.892
3393.91  	100.993
3396.78  	100.988
3399.65  	100.932
3402.53  	100.853
3405.4  	100.92
3408.28  	101.004
3411.15  	101.015
3414.02  	100.936
3416.9  	101.017
3419.77  	100.99
3422.64  	100.914
3425.52  	100.962
3428.39  	100.925
3431.27  	100.956
3434.14  	100.849
3437.01  	100.917
3439.89  	100.885
3442.76  	100.964
3445.63  	100.924
3448.51  	100.916
3451.38  	101.031
3454.26  	100.961
3457.13  	101.003
3460  	100.867
3462.88  	101.048
3465.75  	100.958
3468.63  	100.942
3471.5  	100.981
3474.37  	100.937
3477.25  	100.937
3480.12  	100.87
3482.99  	100.823
3485.87  	100.956
3488.74  	100.975
3491.62  	100.906
3494.49  	101.018
3497.36  	101.063
3500.24  	101.071
3503.11  	100.894
3505.98  	100.919
3508.86  	100.819
3511.73  	100.994
3514.61  	101.003
3517.48  	101.101
3520.35  	101.014
3523.23  	100.838
3526.1  	100.826
3528.97  	100.935
3531.85  	100.944
3534.72  	100.945
3537.6  	101.096
3540.47  	100.954
3543.34  	101.036
3546.22  	101.009
3549.09  	100.991
3551.96  	100.896
3554.84  	100.952
3557.71  	100.974
3560.59  	101.004
3563.46  	101.033
3566.33  	100.949
3569.21  	101.055
3572.08  	100.872
3574.95  	100.976
3577.83  	101.061
3580.7  	100.923
3583.58  	101.109
3586.45  	100.976
3589.32  	101.085
3592.2  	100.926
3595.07  	101.067
3597.94  	101.091
3600.82  	101.042
3603.69  	101.227
3606.57  	101.134
3609.44  	101.287
3612.31  	100.966
3615.19  	100.955
3618.06  	101.145
3620.93  	100.974
3623.81  	101.106
3626.68  	100.973
3629.56  	101.101
3632.43  	100.809
3635.3  	100.814
3638.18  	101.038
3641.05  	100.999
3643.92  	101.103
3646.8  	101.243
3649.67  	100.774
3652.55  	100.933
3655.42  	100.779
3658.29  	101.203
3661.17  	101.054
3664.04  	101.181
3666.91  	101.093
3669.79  	101.491
3672.66  	101.365
3675.54  	100.998
3678.41  	101.163
3681.28  	100.778
3684.16  	101.083
3687.03  	101.137
3689.9  	101.112
3692.78  	100.848
3695.65  	100.881
3698.53  	101.032
3701.4  	100.982
3704.27  	100.953
3707.15  	101.072
3710.02  	101.287
3712.89  	101.192
3715.77  	100.984
3718.64  	101.16
3721.52  	101.173
3724.39  	101.062
3727.26  	101.041
3730.14  	101.039
3733.01  	101.428
3735.88  	101.058
3738.76  	100.973
3741.63  	101.145
3744.51  	101.007
3747.38  	101.123
3750.25  	100.876
3753.13  	100.83
3756  	100.944
3758.87  	100.936
3761.75  	100.923
3764.62  	100.907
3767.5  	101
3770.37  	100.989
3773.24  	101.038
3776.12  	100.978
3778.99  	101.118
3781.86  	100.918
3784.74  	101.104
3787.61  	101.096
3790.49  	101.297
3793.36  	101.256
3796.23  	101.187
3799.11  	101.294
3801.98  	101.116
3804.85  	101.185
3807.73  	101.289
3810.6  	101.173
3813.48  	101.025
3816.35  	101.124
3819.22  	101.183
3822.1  	101.629
3824.97  	101.043
3827.84  	101.18
3830.72  	100.984
3833.59  	100.953
3836.47  	101.379
3839.34  	101.353
3842.21  	101.408
3845.09  	100.983
3847.96  	101.056
3850.83  	101.049
3853.71  	101.175
3856.58  	101.105
3859.46  	101.078
3862.33  	101.195
3865.2  	100.974
3868.08  	100.997
3870.95  	100.997
3873.82  	101.101
3876.7  	101.105
3879.57  	101.022
3882.45  	100.993
3885.32  	100.832
3888.19  	101.046
3891.07  	101.13
3893.94  	101.124
3896.81  	101.02
3899.69  	101.133
3902.56  	101.048
3905.44  	100.804
3908.31  	101.019
3911.18  	100.94
3914.06  	101.037
3916.93  	100.949
3919.8  	101.052
3922.68  	100.978
3925.55  	101.065
3928.43  	101.006
3931.3  	101.008
3934.17  	100.953
3937.05  	101.01
3939.92  	101.116
3942.79  	101.038
3945.67  	101.031
3948.54  	100.968
3951.42  	100.962
3954.29  	101.028
3957.16  	101.046
3960.04  	101.017
3962.91  	101.019
3965.79  	101.028
3968.66  	101.003
3971.53  	101.103
3974.41  	101.088
3977.28  	101.028
3980.15  	101.082
3983.03  	101.07
3985.9  	101.06
3988.78  	101.066
3991.65  	101.169
3994.52  	101.043
3997.4  	101.123
4000.27  	101.066