File: Dados - FTIR/amostra_unha_sem_gel.txt
x               y
399.452  	100.466
402.326  	100.032
405.2  	100.557
408.074  	99.4217
410.947  	99.8001
413.821  	101.622
416.695  	100.405
419.569  	98.8194
422.442  	101.659
425.316  	98.8584
428.19  	100.426
431.064  	100.837
433.937  	99.6289
436.811  	100.599
439.685  	100.335
442.559  	100.352
445.432  	100.417
448.306  	99.9354
451.18  	100.775
454.054  	100.558
456.927  	100.528
459.801  	100.023
462.675  	101.01
465.549  	99.8329
468.422  	100.893
471.296  	100.652
474.17  	100.339
477.044  	100.815
479.917  	100.621
482.791  	100.469
485.665  	100.347
488.539  	100.138
491.412  	100.422
494.286  	100.346
497.16  	100.095
500.034  	100.329
502.908  	99.9908
505.781  	100.497
508.655  	100.654
511.529  	100.495
514.403  	100.476
517.276  	100.331
520.15  	100.753
523.024  	100.094
525.898  	100.207
528.771  	100.672
531.645  	100.412
534.519  	100.551
537.393  	100.551
540.266  	100.479
543.14  	100.404
546.014  	100.61
548.888  	100.378
551.761  	100.465
554.635  	100.691
557.509  	100.291
560.383  	100.517
563.256  	100.392
566.13  	100.49
569.004  	100.265
571.878  	100.35
574.751  	100.55
577.625  	100.383
580.499  	100.561
583.373  	100.33
586.246  	100.53
589.12  	100.565
591.994  	100.399
594.868  	100.574
597.742  	100.292
600.615  	100.441
603.489  	100.398
606.363  	100.517
609.237  	100.435
612.11  	100.457
614.984  	100.497
617.858  	100.464
620.732  	100.388
623.605  	100.42
626.479  	100.446
629.353  	100.371
632.227  	100.511
635.1  	100.442
637.974  	100.423
640.848  	100.369
643.722  	100.326
646.595  	100.425
649.469  	100.44
652.343  	100.46
655.217  	100.432
658.09  	100.485
660.964  	100.509
663.838  	100.471
666.712  	100.495
669.585  	100.365
672.459  	100.4
675.333  	100.371
678.207  	100.425
681.08  	100.453
683.954  	100.451
686.828  	100.455
689.702  	100.383
692.576  	100.487
695.449  	100.523
698.323  	100.493
701.197  	100.471
704.071  	100.445
706.944  	100.534
709.818  	100.616
712.692  	100.469
715.566  	100.447
718.439  	100.47
721.313  	100.503
724.187  	100.495
727.061  	100.439
729.934  	100.544
732.808  	100.468
735.682  	100.431
738.556  	100.501
741.429  	100.63
744.303  	100.42
747.177  	100.487
750.051  	100.555
752.924  	100.503
755.798  	100.464
758.672  	100.423
761.546  	100.469
764.419  	100.536
767.293  	100.502
770.167  	100.479
773.041  	100.482
775.914  	100.422
778.788  	100.566
781.662  	100.501
784.536  	100.531
787.409  	100.531
790.283  	100.543
793.157  	100.504
796.031  	100.503
798.905  	100.537
801.778  	100.596
804.652  	100.512
807.526  	100.457
810.4  	100.512
813.273  	100.587
816.147  	100.569
819.021  	100.537
821.895  	100.518
824.768  	100.533
827.642  	100.589
830.516  	100.536
833.39  	100.506
836.263  	100.52
839.137  	100.561
842.011  	100.554
844.885  	100.493
847.758  	100.553
850.632  	100.51
853.506  	100.466
856.38  	100.532
859.253  	100.568
862.127  	100.571
865.001  	100.538
867.875  	100.541
870.748  	100.517
873.622  	100.505
876.496  	100.551
879.37  	100.586
882.243  	100.567
885.117  	100.535
887.991  	100.53
890.865  	100.639
893.739  	100.586
896.612  	100.553
899.486  	100.56
902.36  	100.538
905.234  	100.55
908.107  	100.562
910.981  	100.561
913.855  	100.552
916.729  	100.598
919.602  	100.6
922.476  	100.62
925.35  	100.624
928.224  	100.639
931.097  	100.576
933.971  	100.602
936.845  	100.632
939.719  	100.617
942.592  	100.656
945.466  	100.629
948.34  	100.579
951.214  	100.615
954.087  	100.57
956.961  	100.596
959.835  	100.582
962.709  	100.641
965.582  	100.653
968.456  	100.608
971.33  	100.686
974.204  	100.658
977.077  	100.633
979.951  	100.641
982.825  	100.599
985.699  	100.581
988.573  	100.673
991.446  	100.638
994.32  	100.599
997.194  	100.63
1000.07  	100.638
1002.94  	100.625
1005.82  	100.606
1008.69  	100.611
1011.56  	100.571
1014.44  	100.61
1017.31  	100.616
1020.18  	100.586
1023.06  	100.628
1025.93  	100.585
1028.81  	100.587
1031.68  	100.566
1034.55  	100.563
1037.43  	100.533
1040.3  	100.528
1043.17  	100.568
1046.05  	100.573
1048.92  	100.544
1051.8  	100.513
1054.67  	100.526
1057.54  	100.591
1060.42  	100.62
1063.29  	100.605
1066.16  	100.598
1069.04  	100.595
1071.91  	100.62
1074.79  	100.618
1077.66  	100.625
1080.53  	100.607
1083.41  	100.625
1086.28  	100.591
1089.15  	100.656
1092.03  	100.713
1094.9  	100.716
1097.78  	100.669
1100.65  	100.622
1103.52  	100.669
1106.4  	100.645
1109.27  	100.658
1112.14  	100.635
1115.02  	100.656
1117.89  	100.683
1120.77  	100.664
1123.64  	100.644
1126.51  	100.669
1129.39  	100.648
1132.26  	100.652
1135.13  	100.651
1138.01  	100.65
1140.88  	100.612
1143.76  	100.625
1146.63  	100.626
1149.5  	100.621
1152.38  	100.616
1155.25  	100.636
1158.12  	100.637
1161  	100.587
1163.87  	100.614
1166.75  	100.636
1169.62  	100.614
1172.49  	100.621
1175.37  	100.646
1178.24  	100.628
1181.11  	100.636
1183.99  	100.619
1186.86  	100.617
1189.74  	100.604
1192.61  	100.637
1195.48  	100.62
1198.36  	100.589
1201.23  	100.611
1204.1  	100.593
1206.98  	100.588
1209.85  	100.598
1212.73  	100.594
1215.6  	100.647
1218.47  	100.627
1221.35  	100.619
1224.22  	100.605
1227.09  	100.58
1229.97  	100.599
1232.84  	100.62
1235.72  	100.617
1238.59  	100.592
1241.46  	100.607
1244.34  	100.587
1247.21  	100.607
1250.08  	100.605
1252.96  	100.618
1255.83  	100.629
1258.71  	100.592
1261.58  	100.604
1264.45  	100.583
1267.33  	100.61
1270.2  	100.602
1273.07  	100.616
1275.95  	100.624
1278.82  	100.608
1281.7  	100.604
1284.57  	100.611
1287.44  	100.606
1290.32  	100.614
1293.19  	100.653
1296.06  	100.654
1298.94  	100.591
1301.81  	100.529
1304.69  	100.635
1307.56  	100.649
1310.43  	100.645
1313.31  	100.621
1316.18  	100.626
1319.05  	100.581
1321.93  	100.638
1324.8  	100.625
1327.68  	100.648
1330.55  	100.641
1333.42  	100.685
1336.3  	100.65
1339.17  	100.592
1342.04  	100.643
1344.92  	100.644
1347.79  	100.659
1350.67  	100.664
1353.54  	100.642
1356.41  	100.664
1359.29  	100.643
1362.16  	100.613
1365.03  	100.626
1367.91  	100.593
1370.78  	100.667
1373.66  	100.633
1376.53  	100.708
1379.4  	100.614
1382.28  	100.664
1385.15  	100.656
1388.02  	100.681
1390.9  	100.678
1393.77  	100.71
1396.65  	100.624
1399.52  	100.63
1402.39  	100.618
1405.27  	100.632
1408.14  	100.65
1411.01  	100.661
1413.89  	100.763
1416.76  	100.604
1419.64  	100.637
1422.51  	100.587
1425.38  	100.714
1428.26  	100.732
1431.13  	100.74
1434  	100.731
1436.88  	100.561
1439.75  	100.692
1442.63  	100.666
1445.5  	100.763
1448.37  	100.737
1451.25  	100.707
1454.12  	100.732
1456.99  	100.722
1459.87  	100.717
1462.74  	100.7
1465.62  	100.717
1468.49  	100.692
1471.36  	100.71
1474.24  	100.726
1477.11  	100.673
1479.98  	100.706
1482.86  	100.679
1485.73  	100.691
1488.61  	100.713
1491.48  	100.71
1494.35  	100.723
1497.23  	100.802
1500.1  	100.69
1502.98  	100.706
1505.85  	100.682
1508.72  	100.675
1511.6  	100.732
1514.47  	100.713
1517.34  	100.727
1520.22  	100.572
1523.09  	100.684
1525.97  	100.647
1528.84  	100.754
1531.71  	100.686
1534.59  	100.739
1537.46  	100.695
1540.33  	100.729
1543.21  	100.666
1546.08  	100.692
1548.96  	100.663
1551.83  	100.687
1554.7  	100.766
1557.58  	100.774
1560.45  	100.691
1563.32  	100.625
1566.2  	100.661
1569.07  	100.58
1571.95  	100.69
1574.82  	100.683
1577.69  	100.672
1580.57  	100.656
1583.44  	100.615
1586.31  	100.596
1589.19  	100.631
1592.06  	100.719
1594.94  	100.699
1597.81  	100.751
1600.68  	100.673
1603.56  	100.739
1606.43  	100.76
1609.3  	100.807
1612.18  	100.791
1615.05  	100.697
1617.93  	100.813
1620.8  	100.713
1623.67  	100.864
1626.55  	100.762
1629.42  	100.781
1632.29  	100.731
1635.17  	100.715
1638.04  	100.855
1640.92  	100.672
1643.79  	100.859
1646.66  	100.739
1649.54  	100.768
1652.41  	100.725
1655.28  	100.723
1658.16  	100.774
1661.03  	100.665
1663.91  	100.735
1666.78  	100.721
1669.65  	100.752
1672.53  	100.799
1675.4  	100.789
1678.27  	100.694
1681.15  	100.686
1684.02  	100.836
1686.9  	100.792
1689.77  	100.791
1692.64  	100.783
1695.52  	100.743
1698.39  	100.739
1701.26  	100.67
1704.14  	100.735
1707.01  	100.732
1709.89  	100.781
1712.76  	100.728
1715.63  	100.717
1718.51  	100.629
1721.38  	100.739
1724.25  	100.725
1727.13  	100.732
1730  	100.739
1732.88  	100.754
1735.75  	100.77
1738.62  	100.771
1741.5  	100.751
1744.37  	100.738
1747.24  	100.708
1750.12  	100.806
1752.99  	100.771
1755.87  	100.809
1758.74  	100.742
1761.61  	100.713
1764.49  	100.737
1767.36  	100.802
1770.23  	100.809
1773.11  	100.886
1775.98  	100.687
1778.86  	100.683
1781.73  	100.764
1784.6  	100.854
1787.48  	100.846
1790.35  	100.79
1793.22  	100.797
1796.1  	100.743
1798.97  	100.811
1801.85  	100.814
1804.72  	100.793
1807.59  	100.836
1810.47  	100.802
1813.34  	100.866
1816.21  	100.818
1819.09  	100.88
1821.96  	100.836
1824.84  	100.874
1827.71  	100.908
1830.58  	100.857
1833.46  	100.837
1836.33  	100.833
1839.2  	100.832
1842.08  	100.804
1844.95  	100.862
1847.83  	100.802
1850.7  	100.835
1853.57  	100.769
1856.45  	100.818
1859.32  	100.867
1862.19  	100.849
1865.07  	100.865
1867.94  	100.827
1870.82  	100.809
1873.69  	100.762
1876.56  	100.876
1879.44  	100.873
1882.31  	100.867
1885.18  	100.901
1888.06  	100.762
1890.93  	101.007
1893.81  	100.811
1896.68  	100.781
1899.55  	100.884
1902.43  	100.901
1905.3  	100.934
1908.17  	100.93
1911.05  	100.876
1913.92  	100.849
1916.8  	100.872
1919.67  	100.926
1922.54  	100.874
1925.42  	100.777
1928.29  	100.95
1931.16  	100.98
1934.04  	100.96
1936.91  	100.942
1939.79  	100.957
1942.66  	101.008
1945.53  	101.189
1948.41  	100.992
1951.28  	100.993
1954.15  	100.96
1957.03  	101.203
1959.9  	100.805
1962.78  	101.015
1965.65  	100.882
1968.52  	100.825
1971.4  	100.858
1974.27  	100.635
1977.15  	100.896
1980.02  	100.847
1982.89  	100.673
1985.77  	100.82
1988.64  	100.756
1991.51  	100.72
1994.39  	100.62
1997.26  	100.604
2000.14  	100.824
2003.01  	100.698
2005.88  	100.787
2008.76  	100.759
2011.63  	100.42
2014.5  	100.836
2017.38  	101.001
2020.25  	100.648
2023.13  	100.644
2026  	100.619
2028.87  	100.548
2031.75  	100.22
2034.62  	100.354
2037.49  	100.508
2040.37  	100.42
2043.24  	100.325
2046.12  	100.557
2048.99  	100.539
2051.86  	100.598
2054.74  	100.641
2057.61  	100.559
2060.48  	100.821
2063.36  	100.635
2066.23  	100.579
2069.11  	100.834
2071.98  	100.8
2074.85  	100.666
2077.73  	100.76
2080.6  	100.91
2083.47  	100.754
2086.35  	100.766
2089.22  	100.648
2092.1  	100.757
2094.97  	100.776
2097.84  	100.801
2100.72  	100.842
2103.59  	100.956
2106.46  	100.98
2109.34  	100.738
2112.21  	100.736
2115.09  	100.888
2117.96  	100.822
2120.83  	100.865
2123.71  	100.9
2126.58  	100.87
2129.45  	101.005
2132.33  	101.144
2135.2  	100.869
2138.08  	101.018
2140.95  	100.954
2143.82  	101.084
2146.7  	101.064
2149.57  	100.739
2152.44  	101.199
2155.32  	101.167
2158.19  	101.09
2161.07  	100.241
2163.94  	100.722
2166.81  	100.348
2169.69  	100.152
2172.56  	100.548
2175.43  	100.799
2178.31  	100.428
2181.18  	100.45
2184.06  	100.318
2186.93  	100.594
2189.8  	100.513
2192.68  	100.687
2195.55  	100.654
2198.42  	100.636
2201.3  	100.562
2204.17  	100.503
2207.05  	100.585
2209.92  	100.563
2212.79  	100.594
2215.67  	100.503
2218.54  	100.431
2221.41  	100.398
2224.29  	100.515
2227.16  	100.342
2230.04  	100.493
2232.91  	100.394
2235.78  	100.549
2238.66  	100.506
2241.53  	100.53
2244.4  	100.459
2247.28  	100.579
2250.15  	100.817
2253.03  	100.62
2255.9  	100.608
2258.77  	100.763
2261.65  	100.752
2264.52  	100.711
2267.39  	100.699
2270.27  	100.648
2273.14  	100.63
2276.02  	100.67
2278.89  	100.69
2281.76  	100.72
2284.64  	100.684
2287.51  	100.708
2290.38  	100.779
2293.26  	100.793
2296.13  	100.788
2299.01  	100.71
2301.88  	100.746
2304.75  	100.741
2307.63  	100.728
2310.5  	100.788
2313.37  	100.826
2316.25  	100.816
2319.12  	100.724
2322  	100.764
2324.87  	100.797
2327.74  	100.871
2330.62  	100.878
2333.49  	100.982
2336.36  	100.917
2339.24  	100.967
2342.11  	100.903
2344.99  	100.861
2347.86  	100.851
2350.73  	100.92
2353.61  	100.996
2356.48  	100.906
2359.35  	100.812
2362.23  	100.8
2365.1  	100.694
2367.98  	100.636
2370.85  	100.623
2373.72  	100.655
2376.6  	100.659
2379.47  	100.701
2382.34  	100.732
2385.22  	100.827
2388.09  	100.807
2390.97  	100.86
2393.84  	100.955
2396.71  	100.9
2399.59  	100.883
2402.46  	100.938
2405.33  	101.002
2408.21  	100.971
2411.08  	100.943
2413.96  	100.951
2416.83  	100.988
2419.7  	100.998
2422.58  	100.917
2425.45  	100.977
2428.32  	100.947
2431.2  	100.843
2434.07  	100.873
2436.95  	100.863
2439.82  	100.87
2442.69  	100.905
2445.57  	100.865
2448.44  	100.873
2451.31  	100.902
2454.19  	100.905
2457.06  	100.93
2459.94  	100.932
2462.81  	100.955
2465.68  	100.941
2468.56  	100.942
2471.43  	100.976
2474.31  	100.95
2477.18  	100.964
2480.05  	100.937
2482.93  	100.973
2485.8  	100.944
2488.67  	100.923
2491.55  	100.903
2494.42  	101.044
2497.3  	100.901
2500.17  	100.922
2503.04  	100.945
2505.92  	100.97
2508.79  	100.924
2511.66  	100.976
2514.54  	100.924
2517.41  	100.869
2520.29  	100.865
2523.16  	100.955
2526.03  	100.916
2528.91  	100.924
2531.78  	100.948
2534.65  	100.93
2537.53  	100.881
2540.4  	100.932
2543.28  	100.905
2546.15  	100.868
2549.02  	100.909
2551.9  	100.892
2554.77  	100.838
2557.64  	100.811
2560.52  	100.834
2563.39  	100.822
2566.27  	100.834
2569.14  	100.845
2572.01  	100.787
2574.89  	100.77
2577.76  	100.734
2580.63  	100.82
2583.51  	100.747
2586.38  	100.766
2589.26  	100.772
2592.13  	100.758
2595  	100.762
2597.88  	100.748
2600.75  	100.775
2603.62  	100.759
2606.5  	100.775
2609.37  	100.757
2612.25  	100.782
2615.12  	100.833
2617.99  	100.761
2620.87  	100.808
2623.74  	100.822
2626.61  	100.794
2629.49  	100.832
2632.36  	100.782
2635.24  	100.809
2638.11  	100.811
2640.98  	100.828
2643.86  	100.823
2646.73  	100.846
2649.6  	100.877
2652.48  	100.883
2655.35  	100.896
2658.23  	100.927
2661.1  	100.918
2663.97  	100.927
2666.85  	100.955
2669.72  	100.909
2672.59  	100.93
2675.47  	100.945
2678.34  	100.964
2681.22  	100.976
2684.09  	100.977
2686.96  	100.978
2689.84  	100.997
2692.71  	100.986
2695.58  	100.983
2698.46  	100.974
2701.33  	100.994
2704.21  	100.981
2707.08  	100.984
2709.95  	100.981
2712.83  	100.999
2715.7  	100.98
2718.57  	100.994
2721.45  	101.021
2724.32  	101.011
2727.2  	101.004
2730.07  	101.034
2732.94  	101.029
2735.82  	101.054
2738.69  	101.041
2741.56  	101.037
2744.44  	101.047
2747.31  	101.05
2750.19  	101.05
2753.06  	101.028
2755.93  	101.042
2758.81  	101.06
2761.68  	101.031
2764.55  	101.043
2767.43  	101.021
2770.3  	101.053
2773.18  	101.024
2776.05  	101.038
2778.92  	101.048
2781.8  	101.063
2784.67  	101.057
2787.54  	101.065
2790.42  	101.018
2793.29  	101.042
2796.17  	101.071
2799.04  	101.062
2801.91  	101.041
2804.79  	101.063
2807.66  	101.058
2810.53  	101.049
2813.41  	101.073
2816.28  	101.038
2819.16  	101.088
2822.03  	101.071
2824.9  	101.061
2827.78  	101.065
2830.65  	101.108
2833.52  	101.063
2836.4  	101.091
2839.27  	101.067
2842.15  	101.079
2845.02  	101.073
2847.89  	101.103
2850.77  	101.094
2853.64  	101.097
2856.51  	101.076
2859.39  	101.12
2862.26  	101.075
2865.14  	101.086
2868.01  	101.072
2870.88  	101.075
2873.76  	101.124
2876.63  	101.071
2879.5  	101.086
2882.38  	101.106
2885.25  	101.106
2888.13  	101.087
2891  	101.108
2893.87  	101.093
2896.75  	101.114
2899.62  	101.115
2902.49  	101.09
2905.37  	101.103
2908.24  	101.091
2911.12  	101.097
2913.99  	101.138
2916.86  	101.115
2919.74  	101.097
2922.61  	101.076
2925.48  	101.082
2928.36  	101.087
2931.23  	101.085
2934.11  	101.072
2936.98  	101.1
2939.85  	101.077
2942.73  	101.046
2945.6  	101.077
2948.47  	101.091
2951.35  	101.111
2954.22  	101.117
2957.1  	101.093
2959.97  	101.13
2962.84  	101.077
2965.72  	101.08
2968.59  	101.134
2971.47  	101.12
2974.34  	101.061
2977.21  	101.063
2980.09  	101.115
2982.96  	101.108
2985.83  	101.141
2988.71  	101.094
2991.58  	101.095
2994.46  	101.098
2997.33  	101.129
3000.2  	101.129
3003.08  	101.136
3005.95  	101.102
3008.82  	101.128
3011.7  	101.073
3014.57  	101.122
3017.45  	101.13
3020.32  	101.092
3023.19  	101.147
3026.07  	101.131
3028.94  	101.115
3031.81  	101.107
3034.69  	101.135
3037.56  	101.161
3040.44  	101.147
3043.31  	101.125
3046.18  	101.188
3049.06  	101.161
3051.93  	101.194
3054.8  	101.144
3057.68  	101.133
3060.55  	101.117
3063.43  	101.097
3066.3  	101.089
3069.17  	101.123
3072.05  	101.183
3074.92  	101.137
3077.79  	101.148
3080.67  	101.123
3083.54  	101.168
3086.42  	101.135
3089.29  	101.14
3092.16  	101.157
3095.04  	101.152
3097.91  	101.157
3100.78  	101.115
3103.66  	101.159
3106.53  	101.134
3109.41  	101.176
3112.28  	101.219
3115.15  	101.152
3118.03  	101.148
3120.9  	101.193
3123.77  	101.211
3126.65  	101.143
3129.52  	101.169
3132.4  	101.13
3135.27  	101.126
3138.14  	101.094
3141.02  	101.15
3143.89  	101.172
3146.76  	101.179
3149.64  	101.21
3152.51  	101.16
3155.39  	101.217
3158.26  	101.214
3161.13  	101.136
3164.01  	101.205
3166.88  	101.183
3169.75  	101.147
3172.63  	101.163
3175.5  	101.169
3178.38  	101.114
3181.25  	101.148
3184.12  	101.106
3187  	101.14
3189.87  	101.156
3192.74  	101.186
3195.62  	101.195
3198.49  	101.146
3201.37  	101.199
3204.24  	101.121
3207.11  	101.197
3209.99  	101.19
3212.86  	101.192
3215.73  	101.135
3218.61  	101.182
3221.48  	101.213
3224.36  	101.242
3227.23  	101.184
3230.1  	101.158
3232.98  	101.182
3235.85  	101.143
3238.72  	101.167
3241.6  	101.119
3244.47  	101.129
3247.35  	101.141
3250.22  	101.196
3253.09  	101.192
3255.97  	101.173
3258.84  	101.164
3261.71  	101.14
3264.59  	101.093
3267.46  	101.153
3270.34  	101.15
3273.21  	101.162
3276.08  	101.128
3278.96  	101.195
3281.83  	101.13
3284.7  	101.19
3287.58  	101.183
3290.45  	101.168
3293.33  	101.116
3296.2  	101.113
3299.07  	101.167
3301.95  	101.201
3304.82  	101.119
3307.69  	101.171
3310.57  	101.221
3313.44  	101.203
3316.32  	101.172
3319.19  	101.168
3322.06  	101.189
3324.94  	101.187
3327.81  	101.13
3330.68  	101.191
3333.56  	101.181
3336.43  	101.175
3339.31  	101.167
3342.18  	101.185
3345.05  	101.215
3347.93  	101.183
3350.8  	101.191
3353.67  	101.17
3356.55  	101.18
3359.42  	101.21
3362.3  	101.213
3365.17  	101.124
3368.04  	101.261
3370.92  	101.194
3373.79  	101.24
3376.66  	101.251
3379.54  	101.227
3382.41  	101.161
3385.29  	101.088
3388.16  	101.239
3391.03  	101.268
3393.91  	101.284
3396.78  	101.194
3399.65  	101.278
3402.53  	101.218
3405.4  	101.201
3408.28  	101.182
3411.15  	101.263
3414.02  	101.279
3416.9  	101.195
3419.77  	101.245
3422.64  	101.232
3425.52  	101.102
3428.39  	101.179
3431.27  	101.312
3434.14  	101.276
3437.01  	101.251
3439.89  	101.212
3442.76  	101.191
3445.63  	101.193
3448.51  	101.258
3451.38  	101.193
3454.26  	101.188
3457.13  	101.294
3460  	101.164
3462.88  	101.251
3465.75  	101.179
3468.63  	101.235
3471.5  	101.239
3474.37  	101.232
3477.25  	101.296
3480.12  	101.213
3482.99  	101.187
3485.87  	101.197
3488.74  	101.146
3491.62  	101.245
3494.49  	101.253
3497.36  	101.251
3500.24  	101.317
3503.11  	101.146
3505.98  	101.197
3508.86  	101.18
3511.73  	101.172
3514.61  	101.237
3517.48  	101.321
3520.35  	101.362
3523.23  	101.294
3526.1  	101.17
3528.97  	101.066
3531.85  	101.167
3534.72  	101.318
3537.6  	101.354
3540.47  	101.385
3543.34  	101.458
3546.22  	101.216
3549.09  	101.328
3551.96  	101.28
3554.84  	101.293
3557.71  	101.395
3560.59  	101.339
3563.46  	101.541
3566.33  	101.125
3569.21  	101.211
3572.08  	101.164
3574.95  	101.254
3577.83  	101.356
3580.7  	101.21
3583.58  	101.506
3586.45  	101.333
3589.32  	101.555
3592.2  	101.091
3595.07  	101.208
3597.94  	101.373
3600.82  	101.388
3603.69  	101.634
3606.57  	101.342
3609.44  	101.53
3612.31  	101.078
3615.19  	101.263
3618.06  	101.423
3620.93  	101.211
3623.81  	101.46
3626.68  	101.375
3629.56  	101.467
3632.43  	101.188
3635.3  	101.018
3638.18  	101.187
3641.05  	101.232
3643.92  	101.572
3646.8  	101.738
3649.67  	101.434
3652.55  	101.305
3655.42  	101.132
3658.29  	101.505
3661.17  	101.262
3664.04  	101.607
3666.91  	101.625
3669.79  	101.91
3672.66  	101.61
3675.54  	100.726
3678.41  	101.385
3681.28  	101.168
3684.16  	101.479
3687.03  	101.515
3689.9  	101.519
3692.78  	101.212
3695.65  	100.987
3698.53  	101.227
3701.4  	101.139
3704.27  	101.322
3707.15  	101.433
3710.02  	101.444
3712.89  	101.358
3715.77  	101.225
3718.64  	101.268
3721.52  	101.458
3724.39  	101.463
3727.26  	101.587
3730.14  	101.426
3733.01  	101.686
3735.88  	101.379
3738.76  	101.47
3741.63  	101.48
3744.51  	101.317
3747.38  	101.546
3750.25  	101.287
3753.13  	101.138
3756  	101.25
3758.87  	101.334
3761.75  	101.356
3764.62  	101.257
3767.5  	101.316
3770.37  	101.215
3773.24  	101.502
3776.12  	101.413
3778.99  	101.503
3781.86  	101.245
3784.74  	101.413
3787.61  	101.375
3790.49  	101.663
3793.36  	101.65
3796.23  	101.635
3799.11  	101.663
3801.98  	101.456
3804.85  	101.454
3807.73  	101.557
3810.6  	101.662
3813.48  	101.414
3816.35  	101.495
3819.22  	101.391
3822.1  	101.565
3824.97  	101.353
3827.84  	101.42
3830.72  	101.354
3833.59  	101.366
3836.47  	101.65
3839.34  	101.502
3842.21  	101.52
3845.09  	101.22
3847.96  	101.448
3850.83  	101.444
3853.71  	101.449
3856.58  	101.533
3859.46  	101.413
3862.33  	101.545
3865.2  	101.322
3868.08  	101.422
3870.95  	101.283
3873.82  	101.511
3876.7  	101.512
3879.57  	101.357
3882.45  	101.277
3885.32  	101.101
3888.19  	101.398
3891.07  	101.514
3893.94  	101.448
3896.81  	101.276
3899.69  	101.325
3902.56  	101.507
3905.44  	101.159
3908.31  	101.29
3911.18  	101.221
3914.06  	101.337
3916.93  	101.247
3919.8  	101.424
3922.68  	101.304
3925.55  	101.362
3928.43  	101.299
3931.3  	101.345
3934.17  	101.271
3937.05  	101.368
3939.92  	101.444
3942.79  	101.407
3945.67  	101.368
3948.54  	101.256
3951.42  	101.321
3954.29  	101.386
3957.16  	101.394
3960.04  	101.359
3962.91  	101.314
3965.79  	101.393
3968.66  	101.332
3971.53  	101.405
3974.41  	101.338
3977.28  	101.351
3980.15  	101.415
3983.03  	101.447
3985.9  	101.403
3988.78  	101.417
3991.65  	101.457
3994.52  	101.371
3997.4  	101.433
4000.27  	101.459