File: Dados - FTIR/rGO1.txt
x               y
399.452  	81.5711
402.326  	82.6582
405.2  	83.4011
408.074  	81.0697
410.947  	81.4159
413.821  	81.8463
416.695  	82.747
419.569  	80.727
422.442  	82.0957
425.316  	82.1747
428.19  	82.9879
431.064  	82.2843
433.937  	82.8065
436.811  	83.192
439.685  	83.705
442.559  	82.1028
445.432  	82.7554
448.306  	82.1186
451.18  	81.8177
454.054  	80.5797
456.927  	80.6829
459.801  	79.5949
462.675  	78.1384
465.549  	78.3311
468.422  	78.3526
471.296  	78.8396
474.17  	80.1656
477.044  	80.5683
479.917  	81.2194
482.791  	81.7897
485.665  	82.1773
488.539  	83.2446
491.412  	83.19
494.286  	84.1435
497.16  	83.5409
500.034  	83.3231
502.908  	83.2808
505.781  	82.9632
508.655  	82.5326
511.529  	82.2028
514.403  	82.0046
517.276  	81.0224
520.15  	80.6152
523.024  	80.5503
525.898  	79.9039
528.771  	79.8796
531.645  	79.6298
534.519  	79.5831
537.393  	79.7735
540.266  	79.9568
543.14  	80.5087
546.014  	80.5966
548.888  	80.7361
551.761  	80.8334
554.635  	81.0414
557.509  	81.4294
560.383  	81.7724
563.256  	82.1092
566.13  	82.158
569.004  	81.7992
571.878  	81.6466
574.751  	81.7605
577.625  	82.0439
580.499  	82.4638
583.373  	82.861
586.246  	82.9014
589.12  	82.8583
591.994  	82.9475
594.868  	83.3245
597.742  	83.5254
600.615  	83.8048
603.489  	84.0314
606.363  	84.2084
609.237  	84.5626
612.11  	84.976
614.984  	85.2343
617.858  	85.4106
620.732  	85.5473
623.605  	85.6715
626.479  	85.7035
629.353  	85.7062
632.227  	85.6125
635.1  	85.3386
637.974  	85.0563
640.848  	84.8914
643.722  	84.584
646.595  	84.1191
649.469  	83.682
652.343  	83.3675
655.217  	83.3016
658.09  	83.9088
660.964  	84.7469
663.838  	85.3286
666.712  	86.2365
669.585  	86.0588
672.459  	86.8617
675.333  	87.258
678.207  	87.4446
681.08  	87.6148
683.954  	87.7064
686.828  	87.7058
689.702  	87.334
692.576  	87.1942
695.449  	87.0696
698.323  	87.0195
701.197  	87.2248
704.071  	87.6415
706.944  	88.2489
709.818  	88.7912
712.692  	89.1736
715.566  	89.5549
718.439  	89.7647
721.313  	89.6717
724.187  	89.6048
727.061  	89.3042
729.934  	89.192
732.808  	88.9458
735.682  	88.5445
738.556  	88.3827
741.429  	88.0985
744.303  	87.5159
747.177  	86.9701
750.051  	86.8968
752.924  	87.1892
755.798  	87.6497
758.672  	88.1179
761.546  	88.4666
764.419  	88.5263
767.293  	87.8529
770.167  	86.808
773.041  	86.1486
775.914  	86.4542
778.788  	87.301
781.662  	88.2881
784.536  	89.1265
787.409  	89.6979
790.283  	89.9531
793.157  	90.1144
796.031  	90.1466
798.905  	89.9794
801.778  	89.7583
804.652  	89.1838
807.526  	88.0549
810.4  	86.2906
813.273  	84.6771
816.147  	84.7938
819.021  	86.2593
821.895  	87.5297
824.768  	87.2596
827.642  	85.7438
830.516  	84.9944
833.39  	85.6242
836.263  	86.9454
839.137  	88.3195
842.011  	89.3524
844.885  	89.9698
847.758  	90.2275
850.632  	90.1455
853.506  	90.0325
856.38  	89.8669
859.253  	89.7305
862.127  	89.6694
865.001  	89.4428
867.875  	89.2993
870.748  	89.2152
873.622  	89.0725
876.496  	88.6561
879.37  	88.1445
882.243  	87.8451
885.117  	87.6422
887.991  	87.4406
890.865  	87.108
893.739  	86.673
896.612  	86.2488
899.486  	85.4414
902.36  	84.389
905.234  	83.5857
908.107  	83.1454
910.981  	82.8718
913.855  	82.732
916.729  	82.6119
919.602  	82.2132
922.476  	81.4202
925.35  	80.866
928.224  	80.2469
931.097  	79.5425
933.971  	78.6964
936.845  	78.0288
939.719  	77.751
942.592  	78.0655
945.466  	78.5618
948.34  	79.0112
951.214  	79.3165
954.087  	79.6076
956.961  	79.9392
959.835  	80.2527
962.709  	80.4864
965.582  	80.6742
968.456  	80.7184
971.33  	80.5779
974.204  	80.6137
977.077  	80.5676
979.951  	80.3587
982.825  	79.8717
985.699  	79.4008
988.573  	78.9978
991.446  	78.6317
994.32  	78.098
997.194  	77.0844
1000.07  	75.7028
1002.94  	74.0657
1005.82  	72.2418
1008.69  	70.1339
1011.56  	68.4856
1014.44  	68.1421
1017.31  	68.2255
1020.18  	68.5836
1023.06  	68.9481
1025.93  	69.4177
1028.81  	70.3602
1031.68  	71.3039
1034.55  	71.3245
1037.43  	70.7271
1040.3  	70.6491
1043.17  	71.2172
1046.05  	72.062
1048.92  	72.8311
1051.8  	73.3245
1054.67  	73.4947
1057.54  	73.4979
1060.42  	73.6949
1063.29  	74.0107
1066.16  	74.2842
1069.04  	74.2861
1071.91  	74.2793
1074.79  	74.3677
1077.66  	75.2339
1080.53  	76.5596
1083.41  	77.787
1086.28  	78.728
1089.15  	79.5318
1092.03  	80.216
1094.9  	80.312
1097.78  	79.8737
1100.65  	79.0598
1103.52  	78.0144
1106.4  	76.7887
1109.27  	75.4471
1112.14  	73.791
1115.02  	72.0827
1117.89  	71.1384
1120.77  	70.687
1123.64  	69.704
1126.51  	68.4158
1129.39  	66.8339
1132.26  	64.9984
1135.13  	63.2651
1138.01  	61.9549
1140.88  	61.1526
1143.76  	60.7428
1146.63  	60.4265
1149.5  	59.8026
1152.38  	58.8369
1155.25  	57.8454
1158.12  	57.0111
1161  	56.4954
1163.87  	56.2585
1166.75  	56.5696
1169.62  	57.5225
1172.49  	58.9144
1175.37  	60.4823
1178.24  	62.1902
1181.11  	64.0049
1183.99  	65.8639
1186.86  	67.8174
1189.74  	69.6768
1192.61  	71.2699
1195.48  	72.4653
1198.36  	73.5147
1201.23  	74.626
1204.1  	75.7472
1206.98  	76.5654
1209.85  	76.6542
1212.73  	75.7995
1215.6  	74.3279
1218.47  	72.6142
1221.35  	71.1052
1224.22  	69.9269
1227.09  	68.6738
1229.97  	67.3343
1232.84  	66.357
1235.72  	66.0007
1238.59  	66.0441
1241.46  	66.4163
1244.34  	66.9137
1247.21  	67.6605
1250.08  	68.6513
1252.96  	70.0354
1255.83  	71.872
1258.71  	73.9735
1261.58  	75.9875
1264.45  	77.5441
1267.33  	78.59
1270.2  	79.2126
1273.07  	79.6789
1275.95  	80.1182
1278.82  	80.3741
1281.7  	80.3649
1284.57  	80.0743
1287.44  	79.3531
1290.32  	78.1046
1293.19  	76.3777
1296.06  	75.3325
1298.94  	75.9464
1301.81  	77.4144
1304.69  	78.5885
1307.56  	79.7796
1310.43  	81.3496
1313.31  	81.7574
1316.18  	81.7761
1319.05  	81.4502
1321.93  	81.9656
1324.8  	83.5052
1327.68  	85.1055
1330.55  	86.7932
1333.42  	88.103
1336.3  	88.227
1339.17  	87.8163
1342.04  	88.1211
1344.92  	88.5807
1347.79  	88.7367
1350.67  	88.5982
1353.54  	88.3394
1356.41  	87.9629
1359.29  	87.6015
1362.16  	86.7726
1365.03  	86.3305
1367.91  	86.6015
1370.78  	87.035
1373.66  	87.4363
1376.53  	87.6675
1379.4  	88.1371
1382.28  	88.2347
1385.15  	87.657
1388.02  	87.0623
1390.9  	87.8831
1393.77  	88.8064
1396.65  	89.3322
1399.52  	89.7527
1402.39  	90.1974
1405.27  	90.1243
1408.14  	90.1044
1411.01  	90.1562
1413.89  	90.1921
1416.76  	90.2571
1419.64  	90.3287
1422.51  	90.5935
1425.38  	90.6582
1428.26  	90.5389
1431.13  	89.4415
1434  	88.4288
1436.88  	87.5015
1439.75  	86.6235
1442.63  	86.0015
1445.5  	84.8348
1448.37  	83.5331
1451.25  	82.8071
1454.12  	82.8379
1456.99  	83.5018
1459.87  	83.4952
1462.74  	84.4995
1465.62  	85.3291
1468.49  	86.593
1471.36  	88.0652
1474.24  	88.8465
1477.11  	89.8358
1479.98  	91.0444
1482.86  	92.1425
1485.73  	92.7034
1488.61  	92.6174
1491.48  	92.2006
1494.35  	92.2429
1497.23  	91.3459
1500.1  	89.4247
1502.98  	87.1744
1505.85  	85.9276
1508.72  	80.1737
1511.6  	79.9611
1514.47  	81.5594
1517.34  	83.0644
1520.22  	83.811
1523.09  	83.4257
1525.97  	83.6001
1528.84  	83.7295
1531.71  	84.4558
1534.59  	84.4536
1537.46  	85.6368
1540.33  	87.1567
1543.21  	87.2832
1546.08  	88.0723
1548.96  	89.38
1551.83  	90.5288
1554.7  	91.6057
1557.58  	92.9228
1560.45  	93.0287
1563.32  	94.2142
1566.2  	94.8554
1569.07  	95.7621
1571.95  	95.4705
1574.82  	95.9987
1577.69  	95.4461
1580.57  	95.5827
1583.44  	95.5078
1586.31  	95.8738
1589.19  	96.1089
1592.06  	95.9661
1594.94  	95.7485
1597.81  	95.3912
1600.68  	95.1413
1603.56  	94.4233
1606.43  	93.6975
1609.3  	93.2747
1612.18  	93.0628
1615.05  	93.5392
1617.93  	93.2096
1620.8  	93.028
1623.67  	92.3755
1626.55  	91.7545
1629.42  	90.8757
1632.29  	90.1947
1635.17  	89.9315
1638.04  	88.2254
1640.92  	89.1982
1643.79  	90.5501
1646.66  	92.0221
1649.54  	91.346
1652.41  	92.8112
1655.28  	90.803
1658.16  	91.2885
1661.03  	91.2632
1663.91  	90.893
1666.78  	90.4208
1669.65  	89.7204
1672.53  	88.7853
1675.4  	87.9841
1678.27  	86.7125
1681.15  	84.9282
1684.02  	84.0842
1686.9  	80.671
1689.77  	78.1917
1692.64  	75.8532
1695.52  	73.973
1698.39  	69.9765
1701.26  	66.3263
1704.14  	63.995
1707.01  	61.455
1709.89  	58.9635
1712.76  	56.9119
1715.63  	56.2338
1718.51  	56.5894
1721.38  	56.9193
1724.25  	58.5622
1727.13  	60.8095
1730  	63.0469
1732.88  	65.6672
1735.75  	70.3475
1738.62  	74.0784
1741.5  	79.3065
1744.37  	83.9048
1747.24  	87.6641
1750.12  	90.2934
1752.99  	91.9242
1755.87  	93.9089
1758.74  	94.8423
1761.61  	95.9065
1764.49  	96.3323
1767.36  	97.2722
1770.23  	97.6874
1773.11  	97.8848
1775.98  	97.8246
1778.86  	98.2076
1781.73  	98.417
1784.6  	98.6263
1787.48  	98.6437
1790.35  	99.0123
1793.22  	99.0038
1796.1  	98.9207
1798.97  	99.1156
1801.85  	99.0932
1804.72  	99.367
1807.59  	99.3381
1810.47  	99.4487
1813.34  	99.5244
1816.21  	99.763
1819.09  	99.6306
1821.96  	99.6571
1824.84  	99.7367
1827.71  	99.7711
1830.58  	99.6714
1833.46  	99.557
1836.33  	99.8832
1839.2  	99.9637
1842.08  	100.072
1844.95  	99.8613
1847.83  	99.8698
1850.7  	100.001
1853.57  	100.039
1856.45  	100.02
1859.32  	99.9979
1862.19  	100.085
1865.07  	100.079
1867.94  	100.12
1870.82  	99.7836
1873.69  	100.068
1876.56  	99.9377
1879.44  	100.075
1882.31  	100.228
1885.18  	100.091
1888.06  	100.124
1890.93  	99.9784
1893.81  	100.236
1896.68  	100.095
1899.55  	100.136
1902.43  	100.129
1905.3  	100.359
1908.17  	100.301
1911.05  	100.016
1913.92  	100.321
1916.8  	100.556
1919.67  	100.312
1922.54  	100.242
1925.42  	100.245
1928.29  	100.416
1931.16  	100.466
1934.04  	100.429
1936.91  	100.467
1939.79  	100.617
1942.66  	100.474
1945.53  	100.289
1948.41  	100.854
1951.28  	101.025
1954.15  	100.756
1957.03  	100.657
1959.9  	101.198
1962.78  	101.259
1965.65  	100.859
1968.52  	100.836
1971.4  	101.015
1974.27  	101.18
1977.15  	100.982
1980.02  	100.536
1982.89  	100.904
1985.77  	101.087
1988.64  	100.485
1991.51  	100.363
1994.39  	100.943
1997.26  	101.098
2000.14  	100.809
2003.01  	101.18
2005.88  	101.329
2008.76  	101.426
2011.63  	101.103
2014.5  	100.876
2017.38  	101.4
2020.25  	101.179
2023.13  	100.922
2026  	101.107
2028.87  	101.33
2031.75  	101.411
2034.62  	100.963
2037.49  	101.004
2040.37  	100.955
2043.24  	100.828
2046.12  	100.723
2048.99  	100.762
2051.86  	100.904
2054.74  	100.768
2057.61  	100.552
2060.48  	100.568
2063.36  	100.674
2066.23  	100.577
2069.11  	100.549
2071.98  	100.715
2074.85  	100.653
2077.73  	100.598
2080.6  	100.479
2083.47  	100.565
2086.35  	100.659
2089.22  	100.465
2092.1  	100.516
2094.97  	100.775
2097.84  	100.799
2100.72  	100.623
2103.59  	100.632
2106.46  	100.726
2109.34  	100.751
2112.21  	100.625
2115.09  	100.554
2117.96  	100.833
2120.83  	100.976
2123.71  	100.801
2126.58  	100.863
2129.45  	101.061
2132.33  	101.178
2135.2  	100.982
2138.08  	100.829
2140.95  	101.331
2143.82  	101.599
2146.7  	101.108
2149.57  	101.06
2152.44  	101.603
2155.32  	101.729
2158.19  	101.385
2161.07  	100.288
2163.94  	101.07
2166.81  	100.901
2169.69  	100.654
2172.56  	100.668
2175.43  	101.28
2178.31  	101.384
2181.18  	100.787
2184.06  	100.67
2186.93  	100.908
2189.8  	100.742
2192.68  	100.615
2195.55  	100.741
2198.42  	100.748
2201.3  	100.802
2204.17  	100.718
2207.05  	100.819
2209.92  	100.89
2212.79  	100.861
2215.67  	100.64
2218.54  	100.836
2221.41  	100.845
2224.29  	100.897
2227.16  	100.665
2230.04  	100.842
2232.91  	100.769
2235.78  	100.723
2238.66  	100.713
2241.53  	100.712
2244.4  	100.731
2247.28  	100.523
2250.15  	100.476
2253.03  	100.537
2255.9  	100.616
2258.77  	100.507
2261.65  	100.519
2264.52  	100.607
2267.39  	100.616
2270.27  	100.476
2273.14  	100.48
2276.02  	100.48
2278.89  	100.411
2281.76  	100.35
2284.64  	100.258
2287.51  	100.229
2290.38  	100.13
2293.26  	100.029
2296.13  	99.9986
2299.01  	99.7457
2301.88  	99.6539
2304.75  	99.4259
2307.63  	99.2623
2310.5  	99.0789
2313.37  	98.9399
2316.25  	98.9253
2319.12  	98.6995
2322  	98.4345
2324.87  	98.1357
2327.74  	98.2924
2330.62  	98.3521
2333.49  	98.5056
2336.36  	98.6246
2339.24  	98.67
2342.11  	98.4728
2344.99  	98.2109
2347.86  	98.025
2350.73  	98.5409
2353.61  	98.9905
2356.48  	99.0988
2359.35  	98.8018
2362.23  	98.8967
2365.1  	99.0166
2367.98  	98.9625
2370.85  	98.8178
2373.72  	98.842
2376.6  	98.9968
2379.47  	99.228
2382.34  	99.5477
2385.22  	100.035
2388.09  	100.34
2390.97  	100.448
2393.84  	100.44
2396.71  	100.426
2399.59  	100.469
2402.46  	100.405
2405.33  	100.362
2408.21  	100.32
2411.08  	100.361
2413.96  	100.345
2416.83  	100.381
2419.7  	100.38
2422.58  	100.412
2425.45  	100.399
2428.32  	100.334
2431.2  	100.362
2434.07  	100.341
2436.95  	100.335
2439.82  	100.259
2442.69  	100.273
2445.57  	100.308
2448.44  	100.327
2451.31  	100.303
2454.19  	100.213
2457.06  	100.304
2459.94  	100.261
2462.81  	100.272
2465.68  	100.305
2468.56  	100.3
2471.43  	100.301
2474.31  	100.331
2477.18  	100.317
2480.05  	100.301
2482.93  	100.245
2485.8  	100.262
2488.67  	100.257
2491.55  	100.303
2494.42  	100.239
2497.3  	100.163
2500.17  	100.253
2503.04  	100.262
2505.92  	100.186
2508.79  	100.168
2511.66  	100.235
2514.54  	100.228
2517.41  	100.13
2520.29  	100.202
2523.16  	100.22
2526.03  	100.191
2528.91  	100.151
2531.78  	100.109
2534.65  	100.129
2537.53  	100.181
2540.4  	100.106
2543.28  	100.06
2546.15  	100.103
2549.02  	100.106
2551.9  	100.073
2554.77  	100.06
2557.64  	100.031
2560.52  	100.072
2563.39  	100.036
2566.27  	100.012
2569.14  	100.02
2572.01  	100.039
2574.89  	99.9742
2577.76  	99.9848
2580.63  	99.9684
2583.51  	99.9736
2586.38  	99.9328
2589.26  	99.9118
2592.13  	99.9897
2595  	99.9573
2597.88  	99.9558
2600.75  	99.904
2603.62  	99.9845
2606.5  	99.9471
2609.37  	99.8966
2612.25  	99.9395
2615.12  	99.9071
2617.99  	99.9474
2620.87  	99.8917
2623.74  	99.9055
2626.61  	99.9315
2629.49  	99.8963
2632.36  	99.9047
2635.24  	99.9012
2638.11  	99.9178
2640.98  	99.8865
2643.86  	99.88
2646.73  	99.8895
2649.6  	99.8614
2652.48  	99.8695
2655.35  	99.8838
2658.23  	99.895
2661.1  	99.9041
2663.97  	99.9172
2666.85  	99.8988
2669.72  	99.9229
2672.59  	99.9298
2675.47  	99.9159
2678.34  	99.9329
2681.22  	99.924
2684.09  	99.9092
2686.96  	99.8754
2689.84  	99.8864
2692.71  	99.8697
2695.58  	99.8792
2698.46  	99.8278
2701.33  	99.8277
2704.21  	99.8244
2707.08  	99.8345
2709.95  	99.7844
2712.83  	99.7761
2715.7  	99.7703
2718.57  	99.7634
2721.45  	99.7723
2724.32  	99.7447
2727.2  	99.7225
2730.07  	99.7423
2732.94  	99.6838
2735.82  	99.6853
2738.69  	99.7078
2741.56  	99.6974
2744.44  	99.6852
2747.31  	99.6946
2750.19  	99.6915
2753.06  	99.6894
2755.93  	99.683
2758.81  	99.6494
2761.68  	99.6934
2764.55  	99.6668
2767.43  	99.6245
2770.3  	99.6296
2773.18  	99.6429
2776.05  	99.6217
2778.92  	99.6031
2781.8  	99.6002
2784.67  	99.5842
2787.54  	99.5401
2790.42  	99.5058
2793.29  	99.4997
2796.17  	99.4814
2799.04  	99.4141
2801.91  	99.3638
2804.79  	99.3098
2807.66  	99.2747
2810.53  	99.2041
2813.41  	99.108
2816.28  	99.037
2819.16  	98.9479
2822.03  	98.8281
2824.9  	98.6909
2827.78  	98.5872
2830.65  	98.3811
2833.52  	98.0811
2836.4  	97.7157
2839.27  	97.2504
2842.15  	96.6584
2845.02  	95.9827
2847.89  	95.2379
2850.77  	94.4601
2853.64  	93.6437
2856.51  	92.7702
2859.39  	91.9874
2862.26  	91.5093
2865.14  	91.3175
2868.01  	91.2814
2870.88  	91.4262
2873.76  	91.682
2876.63  	92.0598
2879.5  	92.408
2882.38  	92.6974
2885.25  	92.7798
2888.13  	92.6928
2891  	92.3631
2893.87  	92.0275
2896.75  	91.6933
2899.62  	91.325
2902.49  	90.9098
2905.37  	90.4816
2908.24  	90.0428
2911.12  	89.5287
2913.99  	88.8895
2916.86  	88.1651
2919.74  	87.4363
2922.61  	86.6699
2925.48  	85.9009
2928.36  	85.3184
2931.23  	84.8667
2934.11  	84.4342
2936.98  	84.0726
2939.85  	83.7718
2942.73  	83.5934
2945.6  	83.5462
2948.47  	83.645
2951.35  	83.997
2954.22  	84.5595
2957.1  	85.3881
2959.97  	86.3675
2962.84  	87.462
2965.72  	88.6066
2968.59  	89.6789
2971.47  	90.7478
2974.34  	91.7585
2977.21  	92.6837
2980.09  	93.4265
2982.96  	94.1929
2985.83  	94.985
2988.71  	95.5982
2991.58  	96.0848
2994.46  	96.4713
2997.33  	96.9118
3000.2  	97.2858
3003.08  	97.5905
3005.95  	97.8931
3008.82  	98.2046
3011.7  	98.4406
3014.57  	98.5429
3017.45  	98.6648
3020.32  	98.7818
3023.19  	98.8382
3026.07  	98.8816
3028.94  	98.913
3031.81  	98.9342
3034.69  	98.9037
3037.56  	98.9356
3040.44  	98.9461
3043.31  	98.9995
3046.18  	99.0134
3049.06  	98.9903
3051.93  	98.992
3054.8  	98.9959
3057.68  	98.944
3060.55  	98.9267
3063.43  	98.9768
3066.3  	99.0268
3069.17  	99.0218
3072.05  	99.0671
3074.92  	99.0665
3077.79  	99.0889
3080.67  	99.1253
3083.54  	99.1121
3086.42  	99.1909
3089.29  	99.1835
3092.16  	99.1656
3095.04  	99.1831
3097.91  	99.162
3100.78  	99.202
3103.66  	99.1187
3106.53  	99.1108
3109.41  	99.1453
3112.28  	99.1797
3115.15  	99.1793
3118.03  	99.1703
3120.9  	99.1893
3123.77  	99.1821
3126.65  	99.1791
3129.52  	99.1528
3132.4  	99.1877
3135.27  	99.1476
3138.14  	99.1429
3141.02  	99.1195
3143.89  	99.1102
3146.76  	99.1305
3149.64  	99.0247
3152.51  	99.0056
3155.39  	99.0125
3158.26  	98.9954
3161.13  	98.9877
3164.01  	98.945
3166.88  	98.9435
3169.75  	98.8894
3172.63  	98.8646
3175.5  	98.8339
3178.38  	98.8546
3181.25  	98.7726
3184.12  	98.7592
3187  	98.7113
3189.87  	98.6943
3192.74  	98.7006
3195.62  	98.7009
3198.49  	98.5823
3201.37  	98.5715
3204.24  	98.5499
3207.11  	98.5274
3209.99  	98.4945
3212.86  	98.4884
3215.73  	98.4121
3218.61  	98.4079
3221.48  	98.3503
3224.36  	98.3653
3227.23  	98.3198
3230.1  	98.2558
3232.98  	98.2797
3235.85  	98.2159
3238.72  	98.1284
3241.6  	98.0746
3244.47  	98.0187
3247.35  	98.0027
3250.22  	97.9545
3253.09  	97.8822
3255.97  	97.8214
3258.84  	97.7933
3261.71  	97.6803
3264.59  	97.6465
3267.46  	97.613
3270.34  	97.5778
3273.21  	97.4371
3276.08  	97.3432
3278.96  	97.3767
3281.83  	97.2918
3284.7  	97.2009
3287.58  	97.2142
3290.45  	97.1676
3293.33  	97.0593
3296.2  	97.0294
3299.07  	96.9465
3301.95  	96.9038
3304.82  	96.8535
3307.69  	96.7478
3310.57  	96.6589
3313.44  	96.6481
3316.32  	96.5561
3319.19  	96.4637
3322.06  	96.4316
3324.94  	96.366
3327.81  	96.2375
3330.68  	96.1224
3333.56  	96.0928
3336.43  	95.9922
3339.31  	95.8904
3342.18  	95.9109
3345.05  	95.8343
3347.93  	95.8144
3350.8  	95.7362
3353.67  	95.6543
3356.55  	95.5897
3359.42  	95.6105
3362.3  	95.5229
3365.17  	95.4999
3368.04  	95.42
3370.92  	95.4204
3373.79  	95.4675
3376.66  	95.5531
3379.54  	95.6412
3382.41  	95.7092
3385.29  	95.7716
3388.16  	95.8852
3391.03  	96.154
3393.91  	96.163
3396.78  	96.3791
3399.65  	96.598
3402.53  	96.7912
3405.4  	96.9256
3408.28  	97.0024
3411.15  	97.1444
3414.02  	97.3072
3416.9  	97.4009
3419.77  	97.415
3422.64  	97.3327
3425.52  	97.5431
3428.39  	97.6792
3431.27  	97.8147
3434.14  	97.8291
3437.01  	97.8727
3439.89  	97.926
3442.76  	97.8883
3445.63  	98.0473
3448.51  	97.8402
3451.38  	98.0715
3454.26  	98.1719
3457.13  	98.2313
3460  	98.3559
3462.88  	98.3354
3465.75  	98.4865
3468.63  	98.5247
3471.5  	98.6194
3474.37  	98.7061
3477.25  	98.6287
3480.12  	98.8173
3482.99  	98.6358
3485.87  	98.812
3488.74  	98.8139
3491.62  	98.8482
3494.49  	98.99
3497.36  	98.9651
3500.24  	99.0006
3503.11  	98.8021
3505.98  	98.7742
3508.86  	99.0864
3511.73  	98.8254
3514.61  	99.1501
3517.48  	99.2572
3520.35  	99.2913
3523.23  	99.0736
3526.1  	98.8348
3528.97  	99.0823
3531.85  	99.1049
3534.72  	99.3752
3537.6  	99.2552
3540.47  	99.5805
3543.34  	99.4908
3546.22  	99.0339
3549.09  	99.1693
3551.96  	99.7446
3554.84  	99.1787
3557.71  	99.6231
3560.59  	99.7285
3563.46  	99.6707
3566.33  	99.5208
3569.21  	98.4231
3572.08  	99.4936
3574.95  	99.5856
3577.83  	99.7475
3580.7  	99.7518
3583.58  	99.7168
3586.45  	100.17
3589.32  	98.7166
3592.2  	99.6379
3595.07  	99.3127
3597.94  	99.2478
3600.82  	99.6861
3603.69  	99.2047
3606.57  	99.8938
3609.44  	99.1034
3612.31  	99.6376
3615.19  	98.5193
3618.06  	98.5514
3620.93  	97.9825
3623.81  	98.6039
3626.68  	99.5609
3629.56  	99.4117
3632.43  	98.7923
3635.3  	99.0573
3638.18  	99.1176
3641.05  	99.7056
3643.92  	99.3343
3646.8  	99.7056
3649.67  	99.1685
3652.55  	97.6994
3655.42  	99.275
3658.29  	98.4844
3661.17  	99.5002
3664.04  	99.1824
3666.91  	99.3114
3669.79  	100.188
3672.66  	98.9542
3675.54  	101.192
3678.41  	97.4043
3681.28  	98.6976
3684.16  	98.4718
3687.03  	99.1514
3689.9  	98.503
3692.78  	97.0948
3695.65  	98.3607
3698.53  	98.8511
3701.4  	99.792
3704.27  	99.1344
3707.15  	100.422
3710.02  	101.264
3712.89  	99.9797
3715.77  	99.9113
3718.64  	100.634
3721.52  	101.07
3724.39  	100.518
3727.26  	99.7553
3730.14  	101.016
3733.01  	102.104
3735.88  	100.887
3738.76  	99.732
3741.63  	100.75
3744.51  	103.024
3747.38  	100.042
3750.25  	101.715
3753.13  	99.7255
3756  	100.803
3758.87  	101.048
3761.75  	100.286
3764.62  	101.475
3767.5  	100.872
3770.37  	101.46
3773.24  	100.566
3776.12  	101.161
3778.99  	101.597
3781.86  	100.623
3784.74  	101.259
3787.61  	100.703
3790.49  	101.399
3793.36  	101.322
3796.23  	101.723
3799.11  	101.12
3801.98  	102.102
3804.85  	100.669
3807.73  	101.533
3810.6  	100.545
3813.48  	101.561
3816.35  	101.815
3819.22  	101.175
3822.1  	100.861
3824.97  	100.784
3827.84  	101.142
3830.72  	101.147
3833.59  	101.121
3836.47  	101.833
3839.34  	101.058
3842.21  	100.421
3845.09  	100.435
3847.96  	101.009
3850.83  	101.946
3853.71  	102.527
3856.58  	99.7519
3859.46  	100.567
3862.33  	101.469
3865.2  	101.239
3868.08  	100.926
3870.95  	100.235
3873.82  	101.011
3876.7  	100.559
3879.57  	101.866
3882.45  	99.974
3885.32  	101.706
3888.19  	100.351
3891.07  	101.789
3893.94  	100.167
3896.81  	101.347
3899.69  	101.276
3902.56  	100.995
3905.44  	100.336
3908.31  	100.294
3911.18  	101.142
3914.06  	101.241
3916.93  	101.266
3919.8  	100.8
3922.68  	101.018
3925.55  	101.036
3928.43  	101.035
3931.3  	101.056
3934.17  	100.581
3937.05  	101.084
3939.92  	101.024
3942.79  	101.082
3945.67  	100.885
3948.54  	100.952
3951.42  	100.799
3954.29  	101.082
3957.16  	101.04
3960.04  	101
3962.91  	100.896
3965.79  	101.103
3968.66  	101.135
3971.53  	101.062
3974.41  	101.026
3977.28  	100.852
3980.15  	101.112
3983.03  	101.076
3985.9  	101.078
3988.78  	101.162
3991.65  	101.016
3994.52  	101.138
3997.4  	101.062
4000.27  	101.192